"","X","rt","url","trial_type","trial_index","time_elapsed","internal_node_id","subject","group","turkID","surveyCode","responses","stimType","stimNum","type","answer","Formatting","Reason","Repayment","Contingencies","Comments","Reason2","Repayment2","Justification","Conts","Gender","Age","condition","situation","formatting","justification","directness"
"1",2,54069,"","survey-text",2,80336,"0.0-2.0",10498,"group1","",772144,"{""Q0"":""My house just burned down, can I stay with you?!""}","high_entitlement",3,"urgency","My house just burned down, can I stay with you?!","M",1,NA,"","",1,0,1,0,"Male",48,"high","non_institutional","M",1,"direct"
"2",4,22213,"","survey-text",4,128182,"0.0-4.0",10498,"group1","",772144,"{""Q0"":""I would like to book an appointment for a physical.""}","low_entitlement",6,"institution","I would like to book an appointment for a physical.","D",NA,NA,"","",0,0,0,0,"Male",48,"low","institutional","D",0,"direct"
"3",6,24869,"","survey-text",6,185766,"0.0-6.0",10498,"group1","",772144,"{""Q0"":""Send help, there's an intruder!""}","high_entitlement",5,"institution","Send help, there's an intruder!","D",1,NA,"","",1,0,1,0,"Male",48,"high","institutional","D",1,"direct"
"4",7,21062,"","survey-text",7,207839,"0.0-7.0",10498,"group1","",772144,"{""Q0"":""We need to go to the ER!""}","high_entitlement",1,"urgency","We need to go to the ER!","D",NA,NA,"","",0,0,0,0,"Male",48,"high","non_institutional","D",0,"direct"
"5",8,28745,"","survey-text",8,237631,"0.0-8.0",10498,"group1","",772144,"{""Q0"":""Can you bring me some water, pretty please?""}","low_entitlement",2,"urgency","Can you bring me some water, pretty please?","M",NA,NA,"","",0,0,0,0,"Male",48,"low","non_institutional","M",0,"direct"
"6",9,32672,"","survey-text",9,271319,"0.0-9.0",10498,"group1","",772144,"{""Q0"":""Please cancel my card. You already know who I am, so just do it.""}","low_entitlement",4,"institution","Please cancel my card. You already know who I am, so just do it.","D",NA,NA,"","",0,0,0,0,"Male",48,"low","institutional","D",0,"direct"
"7",3,90016,"","survey-text",3,284555,"0.0-3.0",11719,"group1","",560775,"{""Q0"":""Hello, is there any occasion for me to see the doctor this afternoon?""}","low_entitlement",6,"institution","Hello, is there any occasion for me to see the doctor this afternoon?","W",NA,NA,"","",0,0,0,0,"Male",32,"low","institutional","W",0,"indirect"
"8",4,104912,"","survey-text",4,390472,"0.0-4.0",11719,"group1","",560775,"{""Q0"":""Bro, I really need your help, I hope you wouldn't mind to allow me to stay with you until my apartment fixed.""}","high_entitlement",3,"urgency","Bro, I really need your help, I hope you wouldn't mind to allow me to stay with you until my apartment fixed.","M",1,NA,"","",1,0,1,0,"Male",32,"high","non_institutional","M",1,"direct"
"9",5,80044,"","survey-text",5,471521,"0.0-5.0",11719,"group1","",560775,"{""Q0"":""Hello 911, there's someone trying to enter my house, help me please.""}","high_entitlement",5,"institution","Hello 911, there's someone trying to enter my house, help me please.","D",1,NA,"","",1,0,1,0,"Male",32,"high","institutional","D",1,"direct"
"10",6,97994,"","survey-text",6,570520,"0.0-6.0",11719,"group1","",560775,"{""Q0"":""I am sorry Miss/Mister, but I don't need any other cards. I wont use the card you sent anyway, is there any solution?""}","low_entitlement",4,"institution","I am sorry Miss/Mister, but I don't need any other cards. I wont use the card you sent anyway, is there any solution?","M",1,NA,"","",1,0,1,0,"Male",32,"low","institutional","M",1,"direct"
"11",8,381578,"","survey-text",8,978399,"0.0-8.0",11719,"group1","",560775,"{""Q0"":""Bro, I think I need to get an emergency treatment right now, let's go to hospital.""}","high_entitlement",1,"urgency","Bro, I think I need to get an emergency treatment right now, let's go to hospital.","D",1,NA,"","",1,0,1,0,"Male",32,"high","non_institutional","D",1,"direct"
"12",9,46990,"","survey-text",9,1026393,"0.0-9.0",11719,"group1","",560775,"{""Q0"":""Dude, can you buy some water? I will pay you later.""}","low_entitlement",2,"urgency","Dude, can you buy some water? I will pay you later.","M",NA,1,"","",0,1,1,0,"Male",32,"low","non_institutional","M",1,"direct"
"13",3,13997,"","survey-text",3,53148,"0.0-3.0",15835,"group1","",369076,"{""Q0"":""Can I crash at your place tonight?""}","high_entitlement",3,"urgency","Can I crash at your place tonight?","M",NA,NA,"","",0,0,0,0,"Male",34,"high","non_institutional","M",0,"direct"
"14",4,7182,"","survey-text",4,61347,"0.0-4.0",15835,"group1","",369076,"{""Q0"":""Hey, toss me a water.""}","low_entitlement",2,"urgency","Hey, toss me a water.","D",NA,NA,"","",0,0,0,0,"Male",34,"low","non_institutional","D",0,"direct"
"15",5,11253,"","survey-text",5,73606,"0.0-5.0",15835,"group1","",369076,"{""Q0"":""I want to cancel my card.""}","low_entitlement",4,"institution","I want to cancel my card.","D",NA,NA,"","",0,0,0,0,"Male",34,"low","institutional","D",0,"direct"
"16",7,6922,"","survey-text",7,169934,"0.0-7.0",15835,"group1","",369076,"{""Q0"":""I'm here for my appointment.""}","low_entitlement",6,"institution","I'm here for my appointment.","D",NA,NA,"","",0,0,0,0,"Male",34,"low","institutional","D",0,"direct"
"17",9,41780,"","survey-text",9,228724,"0.0-9.0",15835,"group1","",369076,"{""Q0"":""I've got an intruder, send the police. Alert them that I'm armed so they don't shoot me. I'm going to go take care of the intruder.""}","high_entitlement",5,"institution","I've got an intruder, send the police. Alert them that I'm armed so they don't shoot me. I'm going to go take care of the intruder.","D",NA,NA,"","?",0,0,0,0,"Male",34,"high","institutional","D",0,"direct"
"18",2,48108,"","survey-text",2,125305,"0.0-2.0",16264,"group1","",310553,"{""Q0"":""I would say, \""Help, there's an intruder and he's broken into my home.\""""}","high_entitlement",5,"institution","I would say, ""Help, there's an intruder and he's broken into my home.""","D",1,NA,"","",1,0,1,0,"Male",30,"high","institutional","D",1,"direct"
"19",4,39077,"","survey-text",4,191010,"0.0-4.0",16264,"group1","",310553,"{""Q0"":""I would say, \""Could you please get the doctor on the line or leave a message for her?\""""}","low_entitlement",6,"institution","I would say, ""Could you please get the doctor on the line or leave a message for her?""","M",NA,NA,"","",0,0,0,0,"Male",30,"low","institutional","M",0,"direct"
"20",5,46588,"","survey-text",5,238601,"0.0-5.0",16264,"group1","",310553,"{""Q0"":""I would ask, \""Please just get me out of here and take me to the ER.  I'm bleeding pretty bad.\""""}","high_entitlement",1,"urgency","I would ask, ""Please just get me out of here and take me to the ER.  I'm bleeding pretty bad.""","D",1,NA,"","",1,0,1,0,"Male",30,"high","non_institutional","D",1,"direct"
"21",7,32805,"","survey-text",7,299129,"0.0-7.0",16264,"group1","",310553,"{""Q0"":""I would ask, \""Look man I'm sorry to ask but I don't have a choice...can I stay with you for a bit until I get back on my feet?\""""}","high_entitlement",3,"urgency","I would ask, ""Look man I'm sorry to ask but I don't have a choice...can I stay with you for a bit until I get back on my feet?""","M",1,NA,"","",1,0,1,0,"Male",30,"high","non_institutional","M",1,"direct"
"22",8,38110,"","survey-text",8,338241,"0.0-8.0",16264,"group1","",310553,"{""Q0"":""I would ask, \""Hey man can you grab me some H20?\""""}","low_entitlement",2,"urgency","I would ask, ""Hey man can you grab me some H20?""","M",NA,NA,"","",0,0,0,0,"Male",30,"low","non_institutional","M",0,"direct"
"23",9,33006,"","survey-text",9,372249,"0.0-9.0",16264,"group1","",310553,"{""Q0"":""I would say, \""Can you please cancel that card?  I don't need it anymore.  Thanks.\""""}","low_entitlement",4,"institution","I would say, ""Can you please cancel that card?  I don't need it anymore.  Thanks.""","M",1,NA,"","",1,0,1,0,"Male",30,"low","institutional","M",1,"direct"
"24",2,77755,"","survey-text",2,116914,"0.0-2.0",16483,"group2","",504658,"{""Q0"":""Hi, there I need a help as my cat has stucked in tree.Need your assistance to save it. So could you come and help me out.""}","low_entitlement",5,"institution","Hi, there I need a help as my cat has stucked in tree.Need your assistance to save it. So could you come and help me out.","M",1,NA,"","",1,0,1,0,"Female",28,"low","institutional","M",1,"direct"
"25",4,36380,"","survey-text",4,180514,"0.0-4.0",16483,"group2","",504658,"{""Q0"":""please help me to get some water I am dying.""}","high_entitlement",2,"urgency","please help me to get some water I am dying.","D",1,NA,"","",1,0,1,0,"Female",28,"high","non_institutional","D",1,"direct"
"26",6,79485,"","survey-text",6,284714,"0.0-6.0",16483,"group2","",504658,"{""Q0"":""Hi, I just need a help.Heard you have a spare Bedroom could I share it as I am engaged in new work in your loaction.""}","low_entitlement",3,"urgency","Hi, I just need a help.Heard you have a spare Bedroom could I share it as I am engaged in new work in your loaction.","M",1,NA,"","",1,0,1,0,"Female",28,"low","non_institutional","M",1,"direct"
"27",7,38523,"","survey-text",7,324245,"0.0-7.0",16483,"group2","",504658,"{""Q0"":""Hi, I just need to go to doctor could you drop me if u don't mind.""}","low_entitlement",1,"urgency","Hi, I just need to go to doctor could you drop me if u don't mind.","M",1,NA,"","",1,0,1,0,"Female",28,"low","non_institutional","M",1,"direct"
"28",8,87267,"","survey-text",8,412515,"0.0-8.0",16483,"group2","",504658,"{""Q0"":""I found someone misused my card and wased out my money. I need to cancel  my card can You help me out, how to cancel this.""}","high_entitlement",4,"institution","I found someone misused my card and wased out my money. I need to cancel  my card can You help me out, how to cancel this.","M",1,NA,"","",1,0,1,0,"Female",28,"high","institutional","M",1,"direct"
"29",9,88986,"","survey-text",9,502507,"0.0-9.0",16483,"group2","",504658,"{""Q0"":""Hi I got some allergy , can I get an appointment to meet the doctor.""}","high_entitlement",6,"institution","Hi I got some allergy , can I get an appointment to meet the doctor.","M",1,NA,"","",1,0,1,0,"Female",28,"high","institutional","M",1,"direct"
"30",3,19823,"","survey-text",3,52029,"0.0-3.0",17117,"group1","",176101,"{""Q0"":""Can you give me a ride to the hospital?""}","high_entitlement",1,"urgency","Can you give me a ride to the hospital?","M",NA,NA,"","Pretty minimal",0,0,0,0,"Male",31,"high","non_institutional","M",0,"direct"
"31",4,9735,"","survey-text",4,62769,"0.0-4.0",17117,"group1","",176101,"{""Q0"":""Can you cancel my card?""}","low_entitlement",4,"institution","Can you cancel my card?","M",NA,NA,"","Pretty minimal",0,0,0,0,"Male",31,"low","institutional","M",0,"direct"
"32",5,16666,"","survey-text",5,80438,"0.0-5.0",17117,"group1","",176101,"{""Q0"":""Help, there's an intruder in my house!""}","high_entitlement",5,"institution","Help, there's an intruder in my house!","D",NA,NA,"","Pretty minimal",0,0,0,0,"Male",31,"high","institutional","D",0,"direct"
"33",6,13804,"","survey-text",6,95245,"0.0-6.0",17117,"group1","",176101,"{""Q0"":""Can I bunk with you tonight?""}","high_entitlement",3,"urgency","Can I bunk with you tonight?","M",NA,NA,"","Pretty minimal",0,0,0,0,"Male",31,"high","non_institutional","M",0,"direct"
"34",8,13970,"","survey-text",8,124750,"0.0-8.0",17117,"group1","",176101,"{""Q0"":""Can I see my doctor?""}","low_entitlement",6,"institution","Can I see my doctor?","M",NA,NA,"","Pretty minimal",0,0,0,0,"Male",31,"low","institutional","M",0,"direct"
"35",9,9517,"","survey-text",9,135271,"0.0-9.0",17117,"group1","",176101,"{""Q0"":""Can you get me a glass of water?""}","low_entitlement",2,"urgency","Can you get me a glass of water?","M",NA,NA,"","Pretty minimal",0,0,0,0,"Male",31,"low","non_institutional","M",0,"direct"
"36",2,22837,"","survey-text",2,62772,"0.0-2.0",18196,"group1","",222639,"{""Q0"":""Hello,\nI would like to cancel my credit card.""}","low_entitlement",4,"institution","Hello,
I would like to cancel my credit card.","D",NA,NA,"","",0,0,0,0,"Male",29,"low","institutional","D",0,"direct"
"37",3,25255,"","survey-text",3,89039,"0.0-3.0",18196,"group1","",222639,"{""Q0"":""Hello, I would like to speak with my doctor.""}","low_entitlement",6,"institution","Hello, I would like to speak with my doctor.","D",NA,NA,"","",0,0,0,0,"Male",29,"low","institutional","D",0,"direct"
"38",4,37413,"","survey-text",4,127452,"0.0-4.0",18196,"group1","",222639,"{""Q0"":""Crap!  I am bleeding profusely!  Take me to the ER now!""}","high_entitlement",1,"urgency","Crap!  I am bleeding profusely!  Take me to the ER now!","D",1,NA,"","",1,0,1,0,"Male",29,"high","non_institutional","D",1,"direct"
"39",5,33352,"","survey-text",5,161809,"0.0-5.0",18196,"group1","",222639,"{""Q0"":""There has been an intrusion into my house.  Please send assistance IMMEDIATELY.""}","high_entitlement",5,"institution","There has been an intrusion into my house.  Please send assistance IMMEDIATELY.","D",1,NA,"","",1,0,1,0,"Male",29,"high","institutional","D",1,"direct"
"40",7,47821,"","survey-text",7,230735,"0.0-7.0",18196,"group1","",222639,"{""Q0"":""I have bad news and a huge favor to ask.  My apartment burned down and I need a place to stay.  I will pay you my share of the rent during my stay.""}","high_entitlement",3,"urgency","I have bad news and a huge favor to ask.  My apartment burned down and I need a place to stay.  I will pay you my share of the rent during my stay.","D",1,1,"","",1,1,1,0,"Male",29,"high","non_institutional","D",1,"direct"
"41",8,19143,"","survey-text",8,250883,"0.0-8.0",18196,"group1","",222639,"{""Q0"":""Grab me some water on your way back bro!""}","low_entitlement",2,"urgency","Grab me some water on your way back bro!","D",NA,NA,"","",0,0,0,0,"Male",29,"low","non_institutional","D",0,"direct"
"42",4,18662,"","survey-text",4,106090,"0.0-4.0",19295,"group1","",182792,"{""Q0"":""Can you please help cancel the card?""}","low_entitlement",4,"institution","Can you please help cancel the card?","M",NA,NA,"","",0,0,0,0,"Female",28,"low","institutional","M",0,"direct"
"43",5,15180,"","survey-text",5,122270,"0.0-5.0",19295,"group1","",182792,"{""Q0"":""Do you mind giving me a ride to the emergency room?""}","high_entitlement",1,"urgency","Do you mind giving me a ride to the emergency room?","M",NA,NA,"","",0,0,0,0,"Female",28,"high","non_institutional","M",0,"direct"
"44",6,35464,"","survey-text",6,158737,"0.0-6.0",19295,"group1","",182792,"{""Q0"":""Please help immediately, there is an intruder in my house. Here is my address. ""}","high_entitlement",5,"institution","Please help immediately, there is an intruder in my house. Here is my address. ","D",1,NA,"","",1,0,1,0,"Female",28,"high","institutional","D",1,"direct"
"45",7,19057,"","survey-text",7,178798,"0.0-7.0",19295,"group1","",182792,"{""Q0"":""Can you give me some water, please?""}","low_entitlement",2,"urgency","Can you give me some water, please?","M",NA,NA,"","",0,0,0,0,"Female",28,"low","non_institutional","M",0,"direct"
"46",8,28416,"","survey-text",8,208217,"0.0-8.0",19295,"group1","",182792,"{""Q0"":""Can you help make an appointment with the doctor?""}","low_entitlement",6,"institution","Can you help make an appointment with the doctor?","M",NA,NA,"","",0,0,0,0,"Female",28,"low","institutional","M",0,"direct"
"47",9,44297,"","survey-text",9,253517,"0.0-9.0",19295,"group1","",182792,"{""Q0"":""Can I stay with you for a short term, please> An electrical fire burns down half my apartment building. ""}","high_entitlement",3,"urgency","Can I stay with you for a short term, please> An electrical fire burns down half my apartment building. ","M",1,NA,"","",1,0,1,0,"Female",28,"high","non_institutional","M",1,"direct"
"48",3,57151,"","survey-text",3,277925,"0.0-3.0",20158,"group1","",378392,"{""Q0"":""will you please take me to the emergency room?""}","high_entitlement",1,"urgency","will you please take me to the emergency room?","M",NA,NA,"","",0,0,0,0,"Male",47,"high","non_institutional","M",0,"direct"
"49",4,27928,"","survey-text",4,306853,"0.0-4.0",20158,"group1","",378392,"{""Q0"":""May I get your appointment for a annual physical?""}","low_entitlement",6,"institution","May I get your appointment for a annual physical?","M",NA,NA,"","",0,0,0,0,"Male",47,"low","institutional","M",0,"direct"
"50",5,61280,"","survey-text",5,369134,"0.0-5.0",20158,"group1","",378392,"{""Q0"":""It seems some intruder arrived at my house , will you please do the needful to catch him?""}","high_entitlement",5,"institution","It seems some intruder arrived at my house , will you please do the needful to catch him?","M",1,NA,"","",1,0,1,0,"Male",47,"high","institutional","M",1,"direct"
"51",6,49567,"","survey-text",6,419702,"0.0-6.0",20158,"group1","",378392,"{""Q0"":""Will you please help me to get a place to stay?""}","high_entitlement",3,"urgency","Will you please help me to get a place to stay?","M",NA,NA,"","",0,0,0,0,"Male",47,"high","non_institutional","M",0,"direct"
"52",8,50319,"","survey-text",8,484333,"0.0-8.0",20158,"group1","",378392,"{""Q0"":""I want to cancel the card and will you please help to proceed in this situation?""}","low_entitlement",4,"institution","I want to cancel the card and will you please help to proceed in this situation?","M",NA,NA,"","",0,0,0,0,"Male",47,"low","institutional","M",0,"direct"
"53",9,23696,"","survey-text",9,509030,"0.0-9.0",20158,"group1","",378392,"{""Q0"":""Will you please get some water for me?""}","low_entitlement",2,"urgency","Will you please get some water for me?","M",NA,NA,"","",0,0,0,0,"Male",47,"low","non_institutional","M",0,"direct"
"54",3,16158,"","survey-text",3,65644,"0.0-3.0",20310,"group1","",174187,"{""Q0"":""I need my yearly checkup""}","low_entitlement",6,"institution","I need my yearly checkup","D",NA,NA,"","",0,0,0,0,"Male",33,"low","institutional","D",0,"direct"
"55",4,14518,"","survey-text",4,81165,"0.0-4.0",20310,"group1","",174187,"{""Q0"":""There is someone in my house""}","high_entitlement",5,"institution","There is someone in my house","IS",NA,NA,"","",0,0,0,0,"Male",33,"high","institutional","IS",0,"indirect"
"56",5,11399,"","survey-text",5,93567,"0.0-5.0",20310,"group1","",174187,"{""Q0"":""grab me some water while you are up""}","low_entitlement",2,"urgency","grab me some water while you are up","D",NA,NA,"","",0,0,0,0,"Male",33,"low","non_institutional","D",0,"direct"
"57",7,11029,"","survey-text",7,112742,"0.0-7.0",20310,"group1","",174187,"{""Q0"":""can I crash with you""}","high_entitlement",3,"urgency","can I crash with you","M",NA,NA,"","",0,0,0,0,"Male",33,"high","non_institutional","M",0,"direct"
"58",8,13465,"","survey-text",8,127210,"0.0-8.0",20310,"group1","",174187,"{""Q0"":""i need to cancel my card""}","low_entitlement",4,"institution","i need to cancel my card","D",NA,NA,"","",0,0,0,0,"Male",33,"low","institutional","D",0,"direct"
"59",9,13326,"","survey-text",9,141542,"0.0-9.0",20310,"group1","",174187,"{""Q0"":""i need a ride to the hospital""}","high_entitlement",1,"urgency","i need a ride to the hospital","D",NA,NA,"","",0,0,0,0,"Male",33,"high","non_institutional","D",0,"direct"
"60",2,107227,"","survey-text",2,235687,"0.0-2.0",21098,"group2","",713147,"{""Q0"":""I have just unknowingly eaten an eggplant, which I am very allergic to, please get me the doctor.""}","high_entitlement",6,"institution","I have just unknowingly eaten an eggplant, which I am very allergic to, please get me the doctor.","D",1,NA,"","",1,0,1,0,"Male",26,"high","institutional","D",1,"direct"
"61",3,123707,"","survey-text",3,360398,"0.0-3.0",21098,"group2","",713147,"{""Q0"":""I have eaten something that I am very allergic to and I need to see the doctor as soon as possible, could you please take me to the doctor?""}","low_entitlement",1,"urgency","I have eaten something that I am very allergic to and I need to see the doctor as soon as possible, could you please take me to the doctor?","M",1,NA,"","",1,0,1,0,"Male",26,"low","non_institutional","M",1,"direct"
"62",4,69867,"","survey-text",4,431270,"0.0-4.0",21098,"group2","",713147,"{""Q0"":""Someone has just stolen my credit card information and is using it illegally, kindly cancel the card for me.""}","high_entitlement",4,"institution","Someone has just stolen my credit card information and is using it illegally, kindly cancel the card for me.","D",1,NA,"","",1,0,1,0,"Male",26,"high","institutional","D",1,"direct"
"63",5,66125,"","survey-text",5,498397,"0.0-5.0",21098,"group2","",713147,"{""Q0"":""I got lost for several hour and I am so dehydrated, could you kindly fetch me some water to drink?""}","high_entitlement",2,"urgency","I got lost for several hour and I am so dehydrated, could you kindly fetch me some water to drink?","M",1,NA,"","",1,0,1,0,"Male",26,"high","non_institutional","M",1,"direct"
"64",6,81918,"","survey-text",6,581318,"0.0-6.0",21098,"group2","",713147,"{""Q0"":""I have work commitments near where you live, would you mind accommodating me in your spare room? ""}","low_entitlement",3,"urgency","I have work commitments near where you live, would you mind accommodating me in your spare room? ","W",1,NA,"","",1,0,1,0,"Male",26,"low","non_institutional","W",1,"indirect"
"65",9,33934,"","survey-text",9,662678,"0.0-9.0",21098,"group2","",713147,"{""Q0"":""Hi, my cat is stuck on a tree, please help. ""}","low_entitlement",5,"institution","Hi, my cat is stuck on a tree, please help. ","D",1,NA,"","",1,0,1,0,"Male",26,"low","institutional","D",1,"direct"
"66",2,92258,"","survey-text",2,156095,"0.0-2.0",21490,"group1","",568778,"{""Q0"":""hi, this is john. I want to talk  with doctor. can you call him?""}","low_entitlement",6,"institution","hi, this is john. I want to talk  with doctor. can you call him?","M",NA,NA,"","",0,0,0,0,"Male",27,"low","institutional","M",0,"direct"
"67",3,318454,"","survey-text",3,475551,"0.0-3.0",21490,"group1","",568778,"{""Q0"":""hello, I\""m calling from here(place). I need help immediately can you send me doctor?""}","high_entitlement",5,"institution","hello, I""m calling from here(place). I need help immediately can you send me doctor?","M",1,NA,"","",1,0,1,0,"Male",27,"high","institutional","M",1,"direct"
"68",4,60715,"","survey-text",4,537271,"0.0-4.0",21490,"group1","",568778,"{""Q0"":""hi, this is my credit card number. i already have credit card. so i don't want another one. please cancel it.""}","low_entitlement",4,"institution","hi, this is my credit card number. i already have credit card. so i don't want another one. please cancel it.","D",1,NA,"","",1,0,1,0,"Male",27,"low","institutional","D",1,"direct"
"69",6,51541,"","survey-text",6,854007,"0.0-6.0",21490,"group1","",568778,"{""Q0"":""hi dude, I need some water. can you help me?""}","low_entitlement",2,"urgency","hi dude, I need some water. can you help me?","M",1,NA,"","",1,0,1,0,"Male",27,"low","non_institutional","M",1,"direct"
"70",7,54376,"","survey-text",7,909393,"0.0-7.0",21490,"group1","",568778,"{""Q0"":""hello, i need your help. here my building fired. so can you come here?""}","high_entitlement",3,"urgency","hello, i need your help. here my building fired. so can you come here?","M",1,NA,"","",1,0,1,0,"Male",27,"high","non_institutional","M",1,"direct"
"71",8,58228,"","survey-text",8,968625,"0.0-8.0",21490,"group1","",568778,"{""Q0"":""hi dude, i have problem here. i want your help. please can you go for emergency room? ""}","high_entitlement",1,"urgency","hi dude, i have problem here. i want your help. please can you go for emergency room? ","M",1,NA,"","",1,0,1,0,"Male",27,"high","non_institutional","M",1,"direct"
"72",2,51371,"","survey-text",2,84363,"0.0-2.0",21894,"group1","",160348,"{""Q0"":""There is an emergency at my apartment and I need somewhere to stay. Could I come over? ""}","high_entitlement",3,"urgency","There is an emergency at my apartment and I need somewhere to stay. Could I come over? ","M",1,NA,"","",1,0,1,0,"Female",44,"high","non_institutional","M",1,"direct"
"73",3,49017,"","survey-text",3,134392,"0.0-3.0",21894,"group1","",160348,"{""Q0"":""I need to cancel my old car because I have my new one now. ""}","low_entitlement",4,"institution","I need to cancel my old car because I have my new one now. ","D",1,NA,"","",1,0,1,0,"Female",44,"low","institutional","D",1,"direct"
"74",4,49997,"","survey-text",4,185399,"0.0-4.0",21894,"group1","",160348,"{""Q0"":""There is an intruder in my house""}","high_entitlement",5,"institution","There is an intruder in my house","IS",NA,NA,"","",0,0,0,0,"Female",44,"high","institutional","IS",0,"indirect"
"75",5,28250,"","survey-text",5,214670,"0.0-5.0",21894,"group1","",160348,"{""Q0"":""Can you get me to the hospital? ""}","high_entitlement",1,"urgency","Can you get me to the hospital? ","M",NA,NA,"","",0,0,0,0,"Female",44,"high","non_institutional","M",0,"direct"
"76",8,10605,"","survey-text",8,260329,"0.0-8.0",21894,"group1","",160348,"{""Q0"":""I need to schedule a physical. ""}","low_entitlement",6,"institution","I need to schedule a physical. ","D",NA,NA,"","",0,0,0,0,"Female",44,"low","institutional","D",0,"direct"
"77",9,11206,"","survey-text",9,272547,"0.0-9.0",21894,"group1","",160348,"{""Q0"":""Would you get me a water please? ""}","low_entitlement",2,"urgency","Would you get me a water please? ","M",NA,NA,"","",0,0,0,0,"Female",44,"low","non_institutional","M",0,"direct"
"78",4,46654,"","survey-text",4,116553,"0.0-4.0",24461,"group1","",138308,"{""Q0"":""Man, you wont belive this, but my place just burned down.  Do you mind if I stay with you tonight.""}","high_entitlement",3,"urgency","Man, you wont belive this, but my place just burned down.  Do you mind if I stay with you tonight.","M",1,NA,"","",1,0,1,0,"Male",47,"high","non_institutional","M",1,"direct"
"79",5,33619,"","survey-text",5,151175,"0.0-5.0",24461,"group1","",138308,"{""Q0"":""Someone just broke into my house can you send the police.""}","high_entitlement",5,"institution","Someone just broke into my house can you send the police.","M",1,NA,"","",1,0,1,0,"Male",47,"high","institutional","M",1,"direct"
"80",6,35638,"","survey-text",6,187819,"0.0-6.0",24461,"group1","",138308,"{""Q0"":""I need to make an appointment for a physical with Doctor XXXX.""}","low_entitlement",6,"institution","I need to make an appointment for a physical with Doctor XXXX.","D",NA,NA,"","",0,0,0,0,"Male",47,"low","institutional","D",0,"direct"
"81",7,33773,"","survey-text",7,222595,"0.0-7.0",24461,"group1","",138308,"{""Q0"":""I need to cancel my card, then number is (number).""}","low_entitlement",4,"institution","I need to cancel my card, then number is (number).","D",NA,NA,"","",0,0,0,0,"Male",47,"low","institutional","D",0,"direct"
"82",8,18726,"","survey-text",8,242326,"0.0-8.0",24461,"group1","",138308,"{""Q0"":""Hey man can you throw me that canteen.""}","low_entitlement",2,"urgency","Hey man can you throw me that canteen.","M",NA,NA,"","",0,0,0,0,"Male",47,"low","non_institutional","M",0,"direct"
"83",9,38313,"","survey-text",9,281642,"0.0-9.0",24461,"group1","",138308,"{""Q0"":""I think I might need to go to the emergency room, will you give me a ride.""}","high_entitlement",1,"urgency","I think I might need to go to the emergency room, will you give me a ride.","M",1,NA,"","",1,0,1,0,"Male",47,"high","non_institutional","M",1,"direct"
"84",2,50656,"","survey-text",2,83711,"0.0-2.0",27048,"group1","",685463,"{""Q0"":""There is an intruder in my house. I need help right away. Please send the police asap.""}","high_entitlement",5,"institution","There is an intruder in my house. I need help right away. Please send the police asap.","D",1,NA,"","",1,0,1,0,"Female",42,"high","institutional","D",1,"direct"
"85",3,28315,"","survey-text",3,113029,"0.0-3.0",27048,"group1","",685463,"{""Q0"":""I like to make an appointment for my annual physical.""}","low_entitlement",6,"institution","I like to make an appointment for my annual physical.","D",NA,NA,"","",0,0,0,0,"Female",42,"low","institutional","D",0,"direct"
"86",5,51327,"","survey-text",5,187145,"0.0-5.0",27048,"group1","",685463,"{""Q0"":""I am serverely bleeding so can you please take me to the emergency room so I can get this gash looked at?""}","high_entitlement",1,"urgency","I am serverely bleeding so can you please take me to the emergency room so I can get this gash looked at?","M",1,NA,"","",1,0,1,0,"Female",42,"high","non_institutional","M",1,"direct"
"87",6,29642,"","survey-text",6,217793,"0.0-6.0",27048,"group1","",685463,"{""Q0"":""My apartment building burned down so can I come stay with you?""}","high_entitlement",3,"urgency","My apartment building burned down so can I come stay with you?","M",1,NA,"","",1,0,1,0,"Female",42,"high","non_institutional","M",1,"direct"
"88",7,24810,"","survey-text",7,243606,"0.0-7.0",27048,"group1","",685463,"{""Q0"":""I need to cancel this rewards credit card that I need longer need.""}","low_entitlement",4,"institution","I need to cancel this rewards credit card that I need longer need.","D",1,NA,"","",1,0,1,0,"Female",42,"low","institutional","D",1,"direct"
"89",8,21626,"","survey-text",8,266234,"0.0-8.0",27048,"group1","",685463,"{""Q0"":""Can you get me some water please?""}","low_entitlement",2,"urgency","Can you get me some water please?","M",NA,NA,"","",0,0,0,0,"Female",42,"low","non_institutional","M",0,"direct"
"90",3,34191,"","survey-text",3,169476,"0.0-3.0",27203,"group2","",809472,"{""Q0"":""Hey man, I've got to stay out of town for work for a day or two. Mind if I crash at your place?""}","low_entitlement",3,"urgency","Hey man, I've got to stay out of town for work for a day or two. Mind if I crash at your place?","M",1,NA,"","",1,0,1,0,"Male",27,"low","non_institutional","M",1,"direct"
"91",4,23750,"","survey-text",4,194228,"0.0-4.0",27203,"group2","",809472,"{""Q0"":""Hey, you think you could give me a ride to my doctor's appointment? ""}","low_entitlement",1,"urgency","Hey, you think you could give me a ride to my doctor's appointment? ","W",NA,NA,"","",0,0,0,0,"Male",27,"low","non_institutional","W",0,"indirect"
"92",5,50391,"","survey-text",5,245620,"0.0-5.0",27203,"group2","",809472,"{""Q0"":""I need to see the doctor, I accidentally ate something I'm allergic to. ""}","high_entitlement",6,"institution","I need to see the doctor, I accidentally ate something I'm allergic to. ","D",1,NA,"","",1,0,1,0,"Male",27,"high","institutional","D",1,"direct"
"93",6,29910,"","survey-text",6,276533,"0.0-6.0",27203,"group2","",809472,"{""Q0"":""Could I get some water please? I've been out for a few hours.""}","high_entitlement",2,"urgency","Could I get some water please? I've been out for a few hours.","M",NA,NA,"","",0,0,0,0,"Male",27,"high","non_institutional","M",0,"direct"
"94",8,57775,"","survey-text",8,348861,"0.0-8.0",27203,"group2","",809472,"{""Q0"":""I just checked my account and it looks like there's been some strange charges on it. Do you think you could cancel the card?""}","high_entitlement",4,"institution","I just checked my account and it looks like there's been some strange charges on it. Do you think you could cancel the card?","W",1,NA,"","",1,0,1,0,"Male",27,"high","institutional","W",1,"indirect"
"95",9,31671,"","survey-text",9,381533,"0.0-9.0",27203,"group2","",809472,"{""Q0"":""My cat won't come down out of the tree. I need help.""}","low_entitlement",5,"institution","My cat won't come down out of the tree. I need help.","D",1,NA,"","",1,0,1,0,"Male",27,"low","institutional","D",1,"direct"
"96",2,40665,"","survey-text",2,102579,"0.0-2.0",27830,"group2","A19LTHK3TA57SF",67733,"{""Q0"":""I need an appointment to meet the doctor.""}","high_entitlement",6,"institution","I need an appointment to meet the doctor.","D",NA,NA,"","",0,0,0,0,"Female",37,"high","institutional","D",0,"direct"
"97",3,143531,"","survey-text",3,247114,"0.0-3.0",27830,"group2","A19LTHK3TA57SF",67733,"{""Q0"":""I need water badly, i am dying of thirst. Please get me water immediately.""}","high_entitlement",2,"urgency","I need water badly, i am dying of thirst. Please get me water immediately.","D",1,NA,"","",1,0,1,0,"Female",37,"high","non_institutional","D",1,"direct"
"98",4,42870,"","survey-text",4,290987,"0.0-4.0",27830,"group2","A19LTHK3TA57SF",67733,"{""Q0"":""Just make sure you cancel my card right away.""}","high_entitlement",4,"institution","Just make sure you cancel my card right away.","D",NA,NA,"","",0,0,0,0,"Female",37,"high","institutional","D",0,"direct"
"99",6,66308,"","survey-text",6,411195,"0.0-6.0",27830,"group2","A19LTHK3TA57SF",67733,"{""Q0"":""Can I accompany you a day so that we can talk about old memories and have fun?""}","low_entitlement",3,"urgency","Can I accompany you a day so that we can talk about old memories and have fun?","M",NA,NA,"","",0,0,0,0,"Female",37,"low","non_institutional","M",0,"direct"
"100",7,27629,"","survey-text",7,439827,"0.0-7.0",27830,"group2","A19LTHK3TA57SF",67733,"{""Q0"":""I need immediate assistance to get the cat down the tree.""}","low_entitlement",5,"institution","I need immediate assistance to get the cat down the tree.","D",1,NA,"","",1,0,1,0,"Female",37,"low","institutional","D",1,"direct"
"101",9,42381,"","survey-text",9,517419,"0.0-9.0",27830,"group2","A19LTHK3TA57SF",67733,"{""Q0"":""I am feeling sick, can you drop me at the doctor's place?""}","low_entitlement",1,"urgency","I am feeling sick, can you drop me at the doctor's place?","M",1,NA,"","",1,0,1,0,"Female",37,"low","non_institutional","M",1,"direct"
"102",3,38285,"","survey-text",3,143152,"0.0-3.0",28185,"group2","",794907,"{""Q0"":""Could I please speak to Dr. (whatever-their-name-is)? I think that I'm having a severe allergic reaction.""}","high_entitlement",6,"institution","Could I please speak to Dr. (whatever-their-name-is)? I think that I'm having a severe allergic reaction.","M",1,NA,"","",1,0,1,0,"Female",30,"high","institutional","M",1,"direct"
"103",4,29107,"","survey-text",4,173266,"0.0-4.0",28185,"group2","",794907,"{""Q0"":""Someone has stolen my credit card and I'd like to begin the process of cancelling the account.""}","high_entitlement",4,"institution","Someone has stolen my credit card and I'd like to begin the process of cancelling the account.","D",1,NA,"","",1,0,1,0,"Female",30,"high","institutional","D",1,"direct"
"104",6,26011,"","survey-text",6,216511,"0.0-6.0",28185,"group2","",794907,"{""Q0"":""Hey, (room-mate's name), could you do me a favor and take me to my doctor's appointment? I'll reimburse you for gas.""}","low_entitlement",1,"urgency","Hey, (room-mate's name), could you do me a favor and take me to my doctor's appointment? I'll reimburse you for gas.","M",NA,1,"","",0,1,1,0,"Female",30,"low","non_institutional","M",1,"direct"
"105",7,28798,"","survey-text",7,246315,"0.0-7.0",28185,"group2","",794907,"{""Q0"":""Hi, (friend's name). I am coming into town soon and was wondering if I could stay in your spare bedroom, if it's not too much of a problem.""}","low_entitlement",3,"urgency","Hi, (friend's name). I am coming into town soon and was wondering if I could stay in your spare bedroom, if it's not too much of a problem.","W",1,NA,"","",1,0,1,0,"Female",30,"low","non_institutional","W",1,"indirect"
"106",8,21385,"","survey-text",8,268708,"0.0-8.0",28185,"group2","",794907,"{""Q0"":""Hello, I need to get my cat down from a tree. Please send someone to (address).""}","low_entitlement",5,"institution","Hello, I need to get my cat down from a tree. Please send someone to (address).","D",NA,NA,"","",0,0,0,0,"Female",30,"low","institutional","D",0,"direct"
"107",9,20817,"","survey-text",9,290530,"0.0-9.0",28185,"group2","",794907,"{""Q0"":""(Friend's name), could you please get me some water? I am very thirsty.""}","high_entitlement",2,"urgency","(Friend's name), could you please get me some water? I am very thirsty.","M",1,NA,"","",1,0,1,0,"Female",30,"high","non_institutional","M",1,"direct"
"108",3,29261,"","survey-text",3,83551,"0.0-3.0",28397,"group2","A34F2ESTZYTWRM",206939,"{""Q0"":""Hey brother.  I'll be in town for a couple days for work.  Can I crash at your house?""}","low_entitlement",3,"urgency","Hey brother.  I'll be in town for a couple days for work.  Can I crash at your house?","M",1,NA,"","",1,0,1,0,"Male",34,"low","non_institutional","M",1,"direct"
"109",4,24588,"","survey-text",4,109158,"0.0-4.0",28397,"group2","A34F2ESTZYTWRM",206939,"{""Q0"":""Tomorrow I have a doctors appointment at 2, is there any way you can take me there?""}","low_entitlement",1,"urgency","Tomorrow I have a doctors appointment at 2, is there any way you can take me there?","W",1,NA,"","",1,0,1,0,"Male",34,"low","non_institutional","W",1,"indirect"
"110",5,15249,"","survey-text",5,125413,"0.0-5.0",28397,"group2","A34F2ESTZYTWRM",206939,"{""Q0"":""I NEED WATER!""}","high_entitlement",2,"urgency","I NEED WATER!","D",NA,NA,"","",0,0,0,0,"Male",34,"high","non_institutional","D",0,"direct"
"111",6,24763,"","survey-text",6,151182,"0.0-6.0",28397,"group2","A34F2ESTZYTWRM",206939,"{""Q0"":""This sounds really dumb, but my cat is stuck in a tree.  Is there anyway you could send some help?""}","low_entitlement",5,"institution","This sounds really dumb, but my cat is stuck in a tree.  Is there anyway you could send some help?","W",1,NA,"","",1,0,1,0,"Male",34,"low","institutional","W",1,"indirect"
"112",7,32736,"","survey-text",7,184937,"0.0-7.0",28397,"group2","A34F2ESTZYTWRM",206939,"{""Q0"":""I need to cancel my card, I believe someone has stolen it.  There are a bunch of charges on it that aren't mine.""}","high_entitlement",4,"institution","I need to cancel my card, I believe someone has stolen it.  There are a bunch of charges on it that aren't mine.","D",1,NA,"","",1,0,1,0,"Male",34,"high","institutional","D",1,"direct"
"113",9,26547,"","survey-text",9,223093,"0.0-9.0",28397,"group2","A34F2ESTZYTWRM",206939,"{""Q0"":""I'm having an allergic reaction, I need to see the doctor right away.""}","high_entitlement",6,"institution","I'm having an allergic reaction, I need to see the doctor right away.","D",1,NA,"","",1,0,1,0,"Male",34,"high","institutional","D",1,"direct"
"114",2,103799,"","survey-text",2,163735,"0.0-2.0",28470,"group2","",659406,"{""Q0"":""I need help. I'm alergic to eggplant and I just consumed some. I'm now having allergic attacks.""}","high_entitlement",6,"institution","I need help. I'm alergic to eggplant and I just consumed some. I'm now having allergic attacks.","D",1,NA,"","",1,0,1,0,"Male",39,"high","institutional","D",1,"direct"
"115",3,45821,"","survey-text",3,210557,"0.0-3.0",28470,"group2","",659406,"{""Q0"":""I would like to report unauthorized charges on my account and have the account closed.""}","high_entitlement",4,"institution","I would like to report unauthorized charges on my account and have the account closed.","D",NA,NA,"","",0,0,0,0,"Male",39,"high","institutional","D",0,"direct"
"116",4,65287,"","survey-text",4,277287,"0.0-4.0",28470,"group2","",659406,"{""Q0"":""Hey there. I was wondering if it would be ok if I stay with you for a few days. I'm on a work assignment that requires me to travel and I need a place to crash.""}","low_entitlement",3,"urgency","Hey there. I was wondering if it would be ok if I stay with you for a few days. I'm on a work assignment that requires me to travel and I need a place to crash.","W",1,NA,"","",1,0,1,0,"Male",39,"low","non_institutional","W",1,"indirect"
"117",6,24697,"","survey-text",6,323397,"0.0-6.0",28470,"group2","",659406,"{""Q0"":""Hurry, i'm nearly dehydrated and in dire need of water!""}","high_entitlement",2,"urgency","Hurry, i'm nearly dehydrated and in dire need of water!","D",1,NA,"","",1,0,1,0,"Male",39,"high","non_institutional","D",1,"direct"
"118",8,30817,"","survey-text",8,373246,"0.0-8.0",28470,"group2","",659406,"{""Q0"":""Hey there, could you please give me a ride to my doc appointment? I'll pay you for gas.""}","low_entitlement",1,"urgency","Hey there, could you please give me a ride to my doc appointment? I'll pay you for gas.","M",NA,1,"","",0,1,1,0,"Male",39,"low","non_institutional","M",1,"direct"
"119",9,26371,"","survey-text",9,400619,"0.0-9.0",28470,"group2","",659406,"{""Q0"":""My cat is stuck on a tree and I can't get him down. Could you please send a fire truck.""}","low_entitlement",5,"institution","My cat is stuck on a tree and I can't get him down. Could you please send a fire truck.","M",1,NA,"","",1,0,1,0,"Male",39,"low","institutional","M",1,"direct"
"120",3,82663,"","survey-text",3,300234,"0.0-3.0",29623,"group2","",788129,"{""Q0"":""I need to visit the doctor, but there's no one to take me there. If I don't reach on time, I'll miss the appointment. Can you please give me a ride?""}","low_entitlement",1,"urgency","I need to visit the doctor, but there's no one to take me there. If I don't reach on time, I'll miss the appointment. Can you please give me a ride?","M",1,NA,"","",1,0,1,0,"Male",29,"low","non_institutional","M",1,"direct"
"121",4,101244,"","survey-text",4,402482,"0.0-4.0",29623,"group2","",788129,"{""Q0"":""I don't know why, but my cat has climbed up a tree. Please send some help ASAP. No, I'm not kidding. Thanks.""}","low_entitlement",5,"institution","I don't know why, but my cat has climbed up a tree. Please send some help ASAP. No, I'm not kidding. Thanks.","D",1,NA,"","",1,0,1,0,"Male",29,"low","institutional","D",1,"direct"
"122",5,246125,"","survey-text",5,649610,"0.0-5.0",29623,"group2","",788129,"{""Q0"":""Hello. I feel that someone has stolen my credit card info and is misusing it. I have been charged with $1000. I'll be grateful if you can cancel the card on an urgent basis.""}","high_entitlement",4,"institution","Hello. I feel that someone has stolen my credit card info and is misusing it. I have been charged with $1000. I'll be grateful if you can cancel the card on an urgent basis.","W",1,NA,"","",1,0,1,0,"Male",29,"high","institutional","W",1,"indirect"
"123",6,67013,"","survey-text",6,717627,"0.0-6.0",29623,"group2","",788129,"{""Q0"":""I think I'm going to faint. Can you please get me some water before I faint?""}","high_entitlement",2,"urgency","I think I'm going to faint. Can you please get me some water before I faint?","M",1,NA,"","",1,0,1,0,"Male",29,"high","non_institutional","M",1,"direct"
"124",7,70379,"","survey-text",7,789009,"0.0-7.0",29623,"group2","",788129,"{""Q0"":""I need to talk with the doctor regarding my health. Can you please connect me to the doctor?""}","high_entitlement",6,"institution","I need to talk with the doctor regarding my health. Can you please connect me to the doctor?","M",1,NA,"","",1,0,1,0,"Male",29,"high","institutional","M",1,"direct"
"125",8,61389,"","survey-text",8,851402,"0.0-8.0",29623,"group2","",788129,"{""Q0"":""Hi. I'll be in your town for a few days. If you don't mind, can I stay with you? I'm sure it'll be fun.""}","low_entitlement",3,"urgency","Hi. I'll be in your town for a few days. If you don't mind, can I stay with you? I'm sure it'll be fun.","M",1,NA,"1","",1,0,1,1,"Male",29,"low","non_institutional","M",1,"direct"
"126",2,50555,"","survey-text",2,77974,"0.0-2.0",30463,"group2","",611689,"{""Q0"":""Hello, I need to see the doctor right away as I'm having an allergic reaction to eggplant, which I wasn't aware that it was in the food I was eating.""}","high_entitlement",6,"institution","Hello, I need to see the doctor right away as I'm having an allergic reaction to eggplant, which I wasn't aware that it was in the food I was eating.","D",1,NA,"","",1,0,1,0,"Male",29,"high","institutional","D",1,"direct"
"127",3,72028,"","survey-text",3,151004,"0.0-3.0",30463,"group2","",611689,"{""Q0"":""Hey, I'm coming in due to a work obligation and was wondering if I could hang with you for a day or two since you live right by where I'm going.  Thanks for your hospitality.""}","low_entitlement",3,"urgency","Hey, I'm coming in due to a work obligation and was wondering if I could hang with you for a day or two since you live right by where I'm going.  Thanks for your hospitality.","W",1,NA,"","",1,0,1,0,"Male",29,"low","non_institutional","W",1,"indirect"
"128",5,38476,"","survey-text",5,222738,"0.0-5.0",30463,"group2","",611689,"{""Q0"":""Hi, Can I ask you a favor?  I have a doctor's appointment but I have no way to get there. Is it possible that you can transport me there?""}","low_entitlement",1,"urgency","Hi, Can I ask you a favor?  I have a doctor's appointment but I have no way to get there. Is it possible that you can transport me there?","W",1,NA,"","",1,0,1,0,"Male",29,"low","non_institutional","W",1,"indirect"
"129",6,32575,"","survey-text",6,256317,"0.0-6.0",30463,"group2","",611689,"{""Q0"":""Hi, my cat climbed up to the top of a tree and won't come down.  I have no idea what to do now, could you come and rescue it?""}","low_entitlement",5,"institution","Hi, my cat climbed up to the top of a tree and won't come down.  I have no idea what to do now, could you come and rescue it?","M",1,NA,"","",1,0,1,0,"Male",29,"low","institutional","M",1,"direct"
"130",8,38377,"","survey-text",8,349947,"0.0-8.0",30463,"group2","",611689,"{""Q0"":""Hi, I have some charges on my card I don't recognize and feel someone's stolen my card information.  Can I ask you to cancel the card and issue me a new card number, thanks!""}","high_entitlement",4,"institution","Hi, I have some charges on my card I don't recognize and feel someone's stolen my card information.  Can I ask you to cancel the card and issue me a new card number, thanks!","M",1,NA,"","",1,0,1,0,"Male",29,"high","institutional","M",1,"direct"
"131",9,25358,"","survey-text",9,376309,"0.0-9.0",30463,"group2","",611689,"{""Q0"":""Hi, I got lost in the forest and am really thirsty, can you get me some water?""}","high_entitlement",2,"urgency","Hi, I got lost in the forest and am really thirsty, can you get me some water?","M",1,NA,"","",1,0,1,0,"Male",29,"high","non_institutional","M",1,"direct"
"132",2,34595,"","survey-text",2,63378,"0.0-2.0",32427,"group1","",663266,"{""Q0"":""I no longer have a need for the card, Please cancel this card. Thank you""}","low_entitlement",4,"institution","I no longer have a need for the card, Please cancel this card. Thank you","D",NA,NA,"","",0,0,0,0,"Male",48,"low","institutional","D",0,"direct"
"133",4,29278,"","survey-text",4,116633,"0.0-4.0",32427,"group1","",663266,"{""Q0"":""Someone broke into my house right now. alrams are going off. send someone right away ""}","high_entitlement",5,"institution","Someone broke into my house right now. alrams are going off. send someone right away ","D",1,NA,"","",1,0,1,0,"Male",48,"high","institutional","D",1,"direct"
"134",5,37654,"","survey-text",5,155289,"0.0-5.0",32427,"group1","",663266,"{""Q0"":""i need to make an apppointment for the annual. ""}","low_entitlement",6,"institution","i need to make an apppointment for the annual. ","D",NA,NA,"","",0,0,0,0,"Male",48,"low","institutional","D",0,"direct"
"135",7,27878,"","survey-text",7,226721,"0.0-7.0",32427,"group1","",663266,"{""Q0"":""holy shit man, i need to go to the ER. right now let's go ""}","high_entitlement",1,"urgency","holy shit man, i need to go to the ER. right now let's go ","D",NA,NA,"","",0,0,0,0,"Male",48,"high","non_institutional","D",0,"direct"
"136",8,19646,"","survey-text",8,247369,"0.0-8.0",32427,"group1","",663266,"{""Q0"":""hey can you toss me a bottle of water""}","low_entitlement",2,"urgency","hey can you toss me a bottle of water","M",NA,NA,"","",0,0,0,0,"Male",48,"low","non_institutional","M",0,"direct"
"137",9,19318,"","survey-text",9,267689,"0.0-9.0",32427,"group1","",663266,"{""Q0"":""hey my apartment burned down, can i crash with you? ""}","high_entitlement",3,"urgency","hey my apartment burned down, can i crash with you? ","M",1,NA,"","Not very realistic",1,0,1,0,"Male",48,"high","non_institutional","M",1,"direct"
"138",2,35786,"","survey-text",2,60837,"0.0-2.0",32506,"group1","",702277,"{""Q0"":""Hello, I would like to make an appointment please. It's about time for my annual physical.""}","low_entitlement",6,"institution","Hello, I would like to make an appointment please. It's about time for my annual physical.","D",1,NA,"","",1,0,1,0,"Male",27,"low","institutional","D",1,"direct"
"139",3,59076,"","survey-text",3,120916,"0.0-3.0",32506,"group1","",702277,"{""Q0"":""Hey man, I know this is sudden but I have nowhere else to go. My apartment caught fire and I really need somewhere to live until I get back on my feet. Do you have any extra space?""}","high_entitlement",3,"urgency","Hey man, I know this is sudden but I have nowhere else to go. My apartment caught fire and I really need somewhere to live until I get back on my feet. Do you have any extra space?","W",1,NA,"1","",1,0,1,1,"Male",27,"high","non_institutional","W",1,"indirect"
"140",5,58990,"","survey-text",5,246703,"0.0-5.0",32506,"group1","",702277,"{""Q0"":""I don't feel so well... I think I need to see a doctor ASAP. Please take me to the nearest hospital.""}","high_entitlement",1,"urgency","I don't feel so well... I think I need to see a doctor ASAP. Please take me to the nearest hospital.","D",1,NA,"","",1,0,1,0,"Male",27,"high","non_institutional","D",1,"direct"
"141",6,26477,"","survey-text",6,274181,"0.0-6.0",32506,"group1","",702277,"{""Q0"":""Yo, mind bringing back some water since you're already up?""}","low_entitlement",2,"urgency","Yo, mind bringing back some water since you're already up?","M",NA,NA,"1","",0,0,0,1,"Male",27,"low","non_institutional","M",0,"direct"
"142",7,40728,"","survey-text",7,315911,"0.0-7.0",32506,"group1","",702277,"{""Q0"":""I think there's someone in my house! My security system went off and I heard a loud noise!""}","high_entitlement",5,"institution","I think there's someone in my house! My security system went off and I heard a loud noise!","IS",NA,NA,"","",0,0,0,0,"Male",27,"high","institutional","IS",0,"indirect"
"143",9,20969,"","survey-text",9,381128,"0.0-9.0",32506,"group1","",702277,"{""Q0"":""Hi, I was hoping to cancel my old card please. I don't really use it anymore.""}","low_entitlement",4,"institution","Hi, I was hoping to cancel my old card please. I don't really use it anymore.","W",1,NA,"","",1,0,1,0,"Male",27,"low","institutional","W",1,"indirect"
"144",2,13009,"","survey-text",2,59150,"0.0-2.0",33002,"group2","",494749,"{""Q0"":""Get me some water, will ya?""}","high_entitlement",2,"urgency","Get me some water, will ya?","M",NA,NA,"","",0,0,0,0,"Female",27,"high","non_institutional","M",0,"direct"
"145",3,16551,"","survey-text",3,76706,"0.0-3.0",33002,"group2","",494749,"{""Q0"":""I need a doctor, I'm having an allergic reaction.""}","high_entitlement",6,"institution","I need a doctor, I'm having an allergic reaction.","D",1,NA,"","",1,0,1,0,"Female",27,"high","institutional","D",1,"direct"
"146",4,18779,"","survey-text",4,96487,"0.0-4.0",33002,"group2","",494749,"{""Q0"":""My cat's stuck up a tree, can you send someone to help when they're available?""}","low_entitlement",5,"institution","My cat's stuck up a tree, can you send someone to help when they're available?","M",1,NA,"","",1,0,1,0,"Female",27,"low","institutional","M",1,"direct"
"147",5,19457,"","survey-text",5,116948,"0.0-5.0",33002,"group2","",494749,"{""Q0"":""I need you to cancel this card since someone else has been using it that isn't me.""}","high_entitlement",4,"institution","I need you to cancel this card since someone else has been using it that isn't me.","D",1,NA,"","",1,0,1,0,"Female",27,"high","institutional","D",1,"direct"
"148",6,12869,"","survey-text",6,130822,"0.0-6.0",33002,"group2","",494749,"{""Q0"":""Would it be possible for me to stay with you?""}","low_entitlement",3,"urgency","Would it be possible for me to stay with you?","W",NA,NA,"","",0,0,0,0,"Female",27,"low","non_institutional","W",0,"indirect"
"149",8,11239,"","survey-text",8,157592,"0.0-8.0",33002,"group2","",494749,"{""Q0"":""Could you drive me to the doctor's?""}","low_entitlement",1,"urgency","Could you drive me to the doctor's?","M",NA,NA,"","",0,0,0,0,"Female",27,"low","non_institutional","M",0,"direct"
"150",2,57032,"","survey-text",2,92209,"0.0-2.0",3378,"group2","",968313,"{""Q0"":""Do you mind giving your car so that I can see my doctor?""}","low_entitlement",1,"urgency","Do you mind giving your car so that I can see my doctor?","M",1,NA,"","",1,0,1,0,"Male",28,"low","non_institutional","M",1,"direct"
"151",3,58089,"","survey-text",3,151301,"0.0-3.0",3378,"group2","",968313,"{""Q0"":""Dude I have some work over there do you mind if I stay in your spare room for a day or two?""}","low_entitlement",3,"urgency","Dude I have some work over there do you mind if I stay in your spare room for a day or two?","M",1,NA,"","",1,0,1,0,"Male",28,"low","non_institutional","M",1,"direct"
"152",4,79948,"","survey-text",4,232297,"0.0-4.0",3378,"group2","",968313,"{""Q0"":""I'm having breathing trouble due to allergy and need to know the probable time to visit the doctor?""}","high_entitlement",6,"institution","I'm having breathing trouble due to allergy and need to know the probable time to visit the doctor?","D",1,NA,"","",1,0,1,0,"Male",28,"high","institutional","D",1,"direct"
"153",7,42558,"","survey-text",7,334163,"0.0-7.0",3378,"group2","",968313,"{""Q0"":""I got completely dehydrated bro pass me the water bottle""}","high_entitlement",2,"urgency","I got completely dehydrated bro pass me the water bottle","D",1,NA,"","",1,0,1,0,"Male",28,"high","non_institutional","D",1,"direct"
"154",8,78226,"","survey-text",8,413393,"0.0-8.0",3378,"group2","",968313,"{""Q0"":""My credit card info has been stolen and he/she has already used 1000$ from it kindly block my card immediatly""}","high_entitlement",4,"institution","My credit card info has been stolen and he/she has already used 1000$ from it kindly block my card immediatly","D",1,NA,"","",1,0,1,0,"Male",28,"high","institutional","D",1,"direct"
"155",9,56923,"","survey-text",9,471321,"0.0-9.0",3378,"group2","",968313,"{""Q0"":""My pet cat has climbed on top of a tree and scared to come down please help me in getting him down.""}","low_entitlement",5,"institution","My pet cat has climbed on top of a tree and scared to come down please help me in getting him down.","D",1,NA,"","",1,0,1,0,"Male",28,"low","institutional","D",1,"direct"
"156",3,71732,"","survey-text",3,193178,"0.0-3.0",3382,"group1","",175843,"{""Q0"":""I had a bad fall and I'm bleeding a lot. Would you mind taking me to the hospital to get it checked out?""}","high_entitlement",1,"urgency","I had a bad fall and I'm bleeding a lot. Would you mind taking me to the hospital to get it checked out?","M",1,NA,"","",1,0,1,0,"Male",27,"high","non_institutional","M",1,"direct"
"157",4,42562,"","survey-text",4,236741,"0.0-4.0",3382,"group1","",175843,"{""Q0"":""While you're up, would you mind grabbing me some water, if it's not too much trouble?""}","low_entitlement",2,"urgency","While you're up, would you mind grabbing me some water, if it's not too much trouble?","M",NA,NA,"1","",0,0,0,1,"Male",27,"low","non_institutional","M",0,"direct"
"158",5,46601,"","survey-text",5,284344,"0.0-5.0",3382,"group1","",175843,"{""Q0"":""Hi, can you help me with the cancellation of a rewards card?""}","low_entitlement",4,"institution","Hi, can you help me with the cancellation of a rewards card?","M",NA,NA,"","",0,0,0,0,"Male",27,"low","institutional","M",0,"direct"
"159",6,52340,"","survey-text",6,337685,"0.0-6.0",3382,"group1","",175843,"{""Q0"":""Hi, This is John Doe. I'm calling to speak with Dr. Crane about an appointment.""}","low_entitlement",6,"institution","Hi, This is John Doe. I'm calling to speak with Dr. Crane about an appointment.","D",NA,NA,"","",0,0,0,0,"Male",27,"low","institutional","D",0,"direct"
"160",7,39125,"","survey-text",7,377811,"0.0-7.0",3382,"group1","",175843,"{""Q0"":""Someone has broken into my house. This is the address...""}","high_entitlement",5,"institution","Someone has broken into my house. This is the address...","IS",0,NA,"","",0,0,0,0,"Male",27,"high","institutional","IS",0,"indirect"
"161",8,70429,"","survey-text",8,449242,"0.0-8.0",3382,"group1","",175843,"{""Q0"":""Hey John. Sorry to call you like this, but if it's not too much of an inconvenience, could I come crash at your place for the night? My apartment building had a fire, and I can't stay there.""}","high_entitlement",3,"urgency","Hey John. Sorry to call you like this, but if it's not too much of an inconvenience, could I come crash at your place for the night? My apartment building had a fire, and I can't stay there.","M",1,NA,"1","",1,0,1,1,"Male",27,"high","non_institutional","M",1,"direct"
"162",2,37146,"","survey-text",2,94417,"0.0-2.0",34216,"group1","",94880,"{""Q0"":""I would like to fix an appoinment for annual check up""}","low_entitlement",6,"institution","I would like to fix an appoinment for annual check up","D",NA,NA,"","",0,0,0,0,"Female",29,"low","institutional","D",0,"direct"
"163",5,22469,"","survey-text",5,220951,"0.0-5.0",34216,"group1","",94880,"{""Q0"":""Hey dude get me some water to drink""}","low_entitlement",2,"urgency","Hey dude get me some water to drink","D",NA,NA,"","",0,0,0,0,"Female",29,"low","non_institutional","D",0,"direct"
"164",6,58061,"","survey-text",6,280015,"0.0-6.0",34216,"group1","",94880,"{""Q0"":""Hello, i would like to cancel the credit card that is arriving to me. Kindly help me in it.""}","low_entitlement",4,"institution","Hello, i would like to cancel the credit card that is arriving to me. Kindly help me in it.","D",NA,NA,"","",0,0,0,0,"Female",29,"low","institutional","D",0,"direct"
"165",7,72965,"","survey-text",7,353983,"0.0-7.0",34216,"group1","",94880,"{""Q0"":""Please take me immediately to emergency room as am scared of blood loss""}","high_entitlement",1,"urgency","Please take me immediately to emergency room as am scared of blood loss","D",1,NA,"","",1,0,1,0,"Female",29,"high","non_institutional","D",1,"direct"
"166",8,78644,"","survey-text",8,433630,"0.0-8.0",34216,"group1","",94880,"{""Q0"":""Hello dude, my apartment building got fired so i have to stay somewhere till it is renovated can i stay with u.""}","high_entitlement",3,"urgency","Hello dude, my apartment building got fired so i have to stay somewhere till it is renovated can i stay with u.","M",1,NA,"","",1,0,1,0,"Female",29,"high","non_institutional","M",1,"direct"
"167",9,65243,"","survey-text",9,499877,"0.0-9.0",34216,"group1","",94880,"{""Q0"":""Hello please help me, i got a strange sound in my house. Kindly come soon and save me.""}","high_entitlement",5,"institution","Hello please help me, i got a strange sound in my house. Kindly come soon and save me.","D",1,NA,"","",1,0,1,0,"Female",29,"high","institutional","D",1,"direct"
"168",2,29082,"","survey-text",2,128621,"0.0-2.0",35325,"group1","",557186,"{""Q0"":""Hey I need a ride to the ER, now!""}","high_entitlement",1,"urgency","Hey I need a ride to the ER, now!","D",NA,NA,"","",0,0,0,0,"Male",41,"high","non_institutional","D",0,"direct"
"169",3,24404,"","survey-text",3,154028,"0.0-3.0",35325,"group1","",557186,"{""Q0"":""Hi there. I'm calling to cancel my card please.""}","low_entitlement",4,"institution","Hi there. I'm calling to cancel my card please.","D",NA,NA,"","",0,0,0,0,"Male",41,"low","institutional","D",0,"direct"
"170",5,28018,"","survey-text",5,205352,"0.0-5.0",35325,"group1","",557186,"{""Q0"":""Hi, I'm at 84 county rd. Someone has broken in""}","high_entitlement",5,"institution","Hi, I'm at 84 county rd. Someone has broken in","D",1,NA,"","",1,0,1,0,"Male",41,"high","institutional","D",1,"direct"
"171",6,17636,"","survey-text",6,223991,"0.0-6.0",35325,"group1","",557186,"{""Q0"":""hey, grab me a drink!""}","low_entitlement",2,"urgency","hey, grab me a drink!","D",NA,NA,"","",0,0,0,0,"Male",41,"low","non_institutional","D",0,"direct"
"172",7,14116,"","survey-text",7,239110,"0.0-7.0",35325,"group1","",557186,"{""Q0"":""I'm calling to make an appointment""}","low_entitlement",6,"institution","I'm calling to make an appointment","D",NA,NA,"","",0,0,0,0,"Male",41,"low","institutional","D",0,"direct"
"173",8,43322,"","survey-text",8,283435,"0.0-8.0",35325,"group1","",557186,"{""Q0"":""Hi, I've got a problem. My house burned down. Can I stay with you?""}","high_entitlement",3,"urgency","Hi, I've got a problem. My house burned down. Can I stay with you?","M",1,NA,"","",1,0,1,0,"Male",41,"high","non_institutional","M",1,"direct"
"174",3,229545,"","survey-text",3,442921,"0.0-3.0",3558,"group1","",614154,"{""Q0"":""hey, dude. you gotta guest for few days""}","high_entitlement",3,"urgency","hey, dude. you gotta guest for few days","D",NA,NA,"","",0,0,0,0,"Male",28,"high","non_institutional","D",0,"direct"
"175",4,69510,"","survey-text",4,513434,"0.0-4.0",3558,"group1","",614154,"{""Q0"":""please notify me when the dr. is available.""}","low_entitlement",6,"institution","please notify me when the dr. is available.","D",NA,NA,"","",0,0,0,0,"Male",28,"low","institutional","D",0,"direct"
"176",5,51259,"","survey-text",5,565698,"0.0-5.0",3558,"group1","",614154,"{""Q0"":""buddy, hurry!""}","high_entitlement",1,"urgency","buddy, hurry!","D",NA,NA,"","",0,0,0,0,"Male",28,"high","non_institutional","D",0,"direct"
"177",6,70388,"","survey-text",6,637090,"0.0-6.0",3558,"group1","",614154,"{""Q0"":""dude, bring me some water!""}","low_entitlement",2,"urgency","dude, bring me some water!","D",NA,NA,"","",0,0,0,0,"Male",28,"low","non_institutional","D",0,"direct"
"178",7,73371,"","survey-text",7,711466,"0.0-7.0",3558,"group1","",614154,"{""Q0"":""could you please cancel this credit card""}","low_entitlement",4,"institution","could you please cancel this credit card","M",NA,NA,"","",0,0,0,0,"Male",28,"low","institutional","M",0,"direct"
"179",8,66315,"","survey-text",8,778786,"0.0-8.0",3558,"group1","",614154,"{""Q0"":""help me! ""}","high_entitlement",5,"institution","help me! ","D",NA,NA,"","",0,0,0,0,"Male",28,"high","institutional","D",0,"direct"
"180",2,63627,"","survey-text",2,120905,"0.0-2.0",3590,"group2","",733702,"{""Q0"":""My cat has climbed to the top of a tree in my back yard. Could you send someone to get him down?""}","low_entitlement",5,"institution","My cat has climbed to the top of a tree in my back yard. Could you send someone to get him down?","M",1,NA,"","",1,0,1,0,"Female",47,"low","institutional","M",1,"direct"
"181",4,51264,"","survey-text",4,187321,"0.0-4.0",3590,"group2","",733702,"{""Q0"":""I believe my credit card information has been used without my approval and need to cancel the card as soon as possible""}","high_entitlement",4,"institution","I believe my credit card information has been used without my approval and need to cancel the card as soon as possible","D",1,NA,"","",1,0,1,0,"Female",47,"high","institutional","D",1,"direct"
"182",5,24950,"","survey-text",5,213273,"0.0-5.0",3590,"group2","",733702,"{""Q0"":""Could you give me a ride to my doctors appointment? I can give you gas money""}","low_entitlement",1,"urgency","Could you give me a ride to my doctors appointment? I can give you gas money","M",NA,1,"","",0,1,1,0,"Female",47,"low","non_institutional","M",1,"direct"
"183",6,15102,"","survey-text",6,229377,"0.0-6.0",3590,"group2","",733702,"{""Q0"":""Could you please get me some water?""}","high_entitlement",2,"urgency","Could you please get me some water?","M",NA,NA,"","",0,0,0,0,"Female",47,"high","non_institutional","M",0,"direct"
"184",7,29733,"","survey-text",7,260112,"0.0-7.0",3590,"group2","",733702,"{""Q0"":""I'm coming to town for work and wanted to know if I could crash at your place""}","low_entitlement",3,"urgency","I'm coming to town for work and wanted to know if I could crash at your place","D",1,NA,"","",1,0,1,0,"Female",47,"low","non_institutional","D",1,"direct"
"185",9,42583,"","survey-text",9,320968,"0.0-9.0",3590,"group2","",733702,"{""Q0"":""I ate some eggplant and am very allergic. Is there any way I could come in to see the doctor?""}","high_entitlement",6,"institution","I ate some eggplant and am very allergic. Is there any way I could come in to see the doctor?","W",1,NA,"","",1,0,1,0,"Female",47,"high","institutional","W",1,"indirect"
"186",2,26751,"","survey-text",2,39707,"0.0-2.0",36913,"group1","",64447,"{""Q0"":""will you please give me a glass of water?""}","low_entitlement",2,"urgency","will you please give me a glass of water?","M",NA,NA,"","",0,0,0,0,"Male",30,"low","non_institutional","M",0,"direct"
"187",4,28928,"","survey-text",4,98339,"0.0-4.0",36913,"group1","",64447,"{""Q0"":""can you please help me?""}","high_entitlement",1,"urgency","can you please help me?","M",NA,NA,"","",0,0,0,0,"Male",30,"high","non_institutional","M",0,"direct"
"188",6,22106,"","survey-text",6,150834,"0.0-6.0",36913,"group1","",64447,"{""Q0"":""can i see  thedoctor  tommorrow please?""}","low_entitlement",6,"institution","can i see  thedoctor  tommorrow please?","M",NA,NA,"","",0,0,0,0,"Male",30,"low","institutional","M",0,"direct"
"189",7,54418,"","survey-text",7,206468,"0.0-7.0",36913,"group1","",64447,"{""Q0"":"" kindly can i get a replacement for my card""}","low_entitlement",4,"institution"," kindly can i get a replacement for my card","M",NA,NA,"","",0,0,0,0,"Male",30,"low","institutional","M",0,"direct"
"190",8,22637,"","survey-text",8,230219,"0.0-8.0",36913,"group1","",64447,"{""Q0"":""Someone please help!!""}","high_entitlement",5,"institution","Someone please help!!","D",NA,NA,"","",0,0,0,0,"Male",30,"high","institutional","D",0,"direct"
"191",9,24026,"","survey-text",9,255251,"0.0-9.0",36913,"group1","",64447,"{""Q0"":""can i stay with you for a while please?""}","high_entitlement",3,"urgency","can i stay with you for a while please?","M",NA,NA,"","",0,0,0,0,"Male",30,"high","non_institutional","M",0,"direct"
"192",2,32755,"","survey-text",2,92460,"0.0-2.0",37109,"group1","",605117,"{""Q0"":""Hello, I need to cancel my card.""}","low_entitlement",4,"institution","Hello, I need to cancel my card.","D",NA,NA,"","",0,0,0,0,"Female",33,"low","institutional","D",0,"direct"
"193",3,45182,"","survey-text",3,138649,"0.0-3.0",37109,"group1","",605117,"{""Q0"":""I was wondering if I could stay with you for a while. My apartment building just burned down.""}","high_entitlement",3,"urgency","I was wondering if I could stay with you for a while. My apartment building just burned down.","W",1,NA,"","",1,0,1,0,"Female",33,"high","non_institutional","W",1,"indirect"
"194",4,20502,"","survey-text",4,160157,"0.0-4.0",37109,"group1","",605117,"{""Q0"":""I think someone just broke into my home.""}","high_entitlement",5,"institution","I think someone just broke into my home.","D",NA,NA,"","?",0,0,0,0,"Female",33,"high","institutional","D",0,"direct"
"195",7,35122,"","survey-text",7,230039,"0.0-7.0",37109,"group1","",605117,"{""Q0"":""I think you should take me to the hospital to have someone take a look at my head.""}","high_entitlement",1,"urgency","I think you should take me to the hospital to have someone take a look at my head.","D",1,NA,"","",1,0,1,0,"Female",33,"high","non_institutional","D",1,"direct"
"196",8,25235,"","survey-text",8,256280,"0.0-8.0",37109,"group1","",605117,"{""Q0"":""Bob, can you get me a bottle of water while your up?""}","low_entitlement",2,"urgency","Bob, can you get me a bottle of water while your up?","M",NA,NA,"","",0,0,0,0,"Female",33,"low","non_institutional","M",0,"direct"
"197",9,19885,"","survey-text",9,277170,"0.0-9.0",37109,"group1","",605117,"{""Q0"":""I would like to make an appointment.""}","low_entitlement",6,"institution","I would like to make an appointment.","D",NA,NA,"","",0,0,0,0,"Female",33,"low","institutional","D",0,"direct"
"198",3,71505,"","survey-text",3,240409,"0.0-3.0",44058,"group2","",642934,"{""Q0"":""\""I can't breathe. I need to talk to the doctor now.\""""}","high_entitlement",6,"institution","""I can't breathe. I need to talk to the doctor now.""","D",1,NA,"","",1,0,1,0,"Female",26,"high","institutional","D",1,"direct"
"199",5,66152,"","survey-text",5,328343,"0.0-5.0",44058,"group2","",642934,"{""Q0"":""\""Hey, are you busy right now? I have a doctor's appointment and I was wondering, if you aren't busy and you wouldn't mind, if you could give me a ride?\""""}","low_entitlement",1,"urgency","""Hey, are you busy right now? I have a doctor's appointment and I was wondering, if you aren't busy and you wouldn't mind, if you could give me a ride?""","W",1,NA,"1","",1,0,1,1,"Female",26,"low","non_institutional","W",1,"indirect"
"200",6,30582,"","survey-text",6,359930,"0.0-6.0",44058,"group2","",642934,"{""Q0"":""\""Water, please?\""""}","high_entitlement",2,"urgency","""Water, please?""","D",NA,NA,"","",0,0,0,0,"Female",26,"high","non_institutional","D",0,"direct"
"201",7,37411,"","survey-text",7,398347,"0.0-7.0",44058,"group2","",642934,"{""Q0"":""\""Hi, I've noticed charges placed on my card that weren't me, could you please cancel my card?\""""}","high_entitlement",4,"institution","""Hi, I've noticed charges placed on my card that weren't me, could you please cancel my card?""","M",1,NA,"","",1,0,1,0,"Female",26,"high","institutional","M",1,"direct"
"202",8,108117,"","survey-text",8,507471,"0.0-8.0",44058,"group2","",642934,"{""Q0"":""\""Hey! I'm going to be in town soon for a work thing! Will you be there then too? If it's not too much trouble could I use your spare room?\""""}","low_entitlement",3,"urgency","""Hey! I'm going to be in town soon for a work thing! Will you be there then too? If it's not too much trouble could I use your spare room?""","W",1,NA,"1","",1,0,1,1,"Female",26,"low","non_institutional","W",1,"indirect"
"203",9,33488,"","survey-text",9,541964,"0.0-9.0",44058,"group2","",642934,"{""Q0"":""\""Hi, my cat is at the top of a tree and won't come down. Is there anyone there that can help me?\""""}","low_entitlement",5,"institution","""Hi, my cat is at the top of a tree and won't come down. Is there anyone there that can help me?""","W",1,NA,"","",1,0,1,0,"Female",26,"low","institutional","W",1,"indirect"
"204",3,29105,"","survey-text",3,141731,"0.0-3.0",46504,"group1","",701976,"{""Q0"":""?Give me the canteen?""}","low_entitlement",2,"urgency","?Give me the canteen?","D",NA,NA,"","",0,0,0,0,"Male",32,"low","non_institutional","D",0,"direct"
"205",5,21048,"","survey-text",5,178104,"0.0-5.0",46504,"group1","",701976,"{""Q0"":""I need to schedule my annual physical.""}","low_entitlement",6,"institution","I need to schedule my annual physical.","D",NA,NA,"","",0,0,0,0,"Male",32,"low","institutional","D",0,"direct"
"206",6,40139,"","survey-text",6,219247,"0.0-6.0",46504,"group1","",701976,"{""Q0"":""My house burned down. Can I crash in your spare room for a while?""}","high_entitlement",3,"urgency","My house burned down. Can I crash in your spare room for a while?","M",1,NA,"","",1,0,1,0,"Male",32,"high","non_institutional","M",1,"direct"
"207",7,36568,"","survey-text",7,256819,"0.0-7.0",46504,"group1","",701976,"{""Q0"":""I want to cancel my card. ""}","low_entitlement",4,"institution","I want to cancel my card. ","D",NA,NA,"","",0,0,0,0,"Male",32,"low","institutional","D",0,"direct"
"208",8,35895,"","survey-text",8,293716,"0.0-8.0",46504,"group1","",701976,"{""Q0"":""I need the police, there's someone in my house!""}","high_entitlement",5,"institution","I need the police, there's someone in my house!","D",1,NA,"","",1,0,1,0,"Male",32,"high","institutional","D",1,"direct"
"209",9,27383,"","survey-text",9,322103,"0.0-9.0",46504,"group1","",701976,"{""Q0"":""I think I need to go to the hospital. ""}","high_entitlement",1,"urgency","I think I need to go to the hospital. ","D",NA,NA,"","",0,0,0,0,"Male",32,"high","non_institutional","D",0,"direct"
"210",2,38153,"","survey-text",2,87296,"0.0-2.0",50623,"group1","",67944,"{""Q0"":""\""Good afternoon. I'd like to begin the process of cancelling my credit card. What are the steps I need to take, please?\""""}","low_entitlement",4,"institution","""Good afternoon. I'd like to begin the process of cancelling my credit card. What are the steps I need to take, please?""","M",1,NA,"","",1,0,1,0,"Female",36,"low","institutional","M",1,"direct"
"211",3,20132,"","survey-text",3,108434,"0.0-3.0",50623,"group1","",67944,"{""Q0"":""\""Hey, would you mind getting me some water while you're up?\""""}","low_entitlement",2,"urgency","""Hey, would you mind getting me some water while you're up?""","M",NA,NA,"","",0,0,0,0,"Female",36,"low","non_institutional","M",0,"direct"
"212",5,27895,"","survey-text",5,157532,"0.0-5.0",50623,"group1","",67944,"{""Q0"":""\""Good afternoon. I'd like to schedule my annual physical with Dr. Jones. My name is...\""""}","low_entitlement",6,"institution","""Good afternoon. I'd like to schedule my annual physical with Dr. Jones. My name is...""","D",NA,NA,"","",0,0,0,0,"Female",36,"low","institutional","D",0,"direct"
"213",6,13968,"","survey-text",6,172504,"0.0-6.0",50623,"group1","",67944,"{""Q0"":""\""I think I need to go to the hospital now.\""""}","high_entitlement",1,"urgency","""I think I need to go to the hospital now.""","D",NA,NA,"","",0,0,0,0,"Female",36,"high","non_institutional","D",0,"direct"
"214",7,48189,"","survey-text",7,221696,"0.0-7.0",50623,"group1","",67944,"{""Q0"":""Help! The alarm is going off! There's someone in the house! Please! There's someone in the house! My address is 1234 Sunshine Drive. Help! Quickly, please send someone quickly!!""}","high_entitlement",5,"institution","Help! The alarm is going off! There's someone in the house! Please! There's someone in the house! My address is 1234 Sunshine Drive. Help! Quickly, please send someone quickly!!","D",1,NA,"","",1,0,1,0,"Female",36,"high","institutional","D",1,"direct"
"215",8,35190,"","survey-text",8,257894,"0.0-8.0",50623,"group1","",67944,"{""Q0"":""I really hate to ask you this, and please feel free to say no if it's not convenient, but the fire has put me out, and I need a place to stay for a few days. I'll do some chores and some cooking, or cover other costs.""}","high_entitlement",3,"urgency","I really hate to ask you this, and please feel free to say no if it's not convenient, but the fire has put me out, and I need a place to stay for a few days. I'll do some chores and some cooking, or cover other costs.","D",1,1,"1","Interesting: ends up saying ""I need a place to stay"", but offers repayment and recognizes contingencies",1,1,1,1,"Female",36,"high","non_institutional","D",1,"direct"
"216",2,35087,"","survey-text",2,108019,"0.0-2.0",51195,"group2","",157255,"{""Q0"":""I haven't had water in hours. Would you please get me some water?!""}","high_entitlement",2,"urgency","I haven't had water in hours. Would you please get me some water?!","M",1,NA,"","",1,0,1,0,"Female",39,"high","non_institutional","M",1,"direct"
"217",3,68879,"","survey-text",3,177903,"0.0-3.0",51195,"group2","",157255,"{""Q0"":""I have an allergy to eggplant and am having trouble breathing. Could I please come in and see the doctor right now?""}","high_entitlement",6,"institution","I have an allergy to eggplant and am having trouble breathing. Could I please come in and see the doctor right now?","M",1,NA,"","",1,0,1,0,"Female",39,"high","institutional","M",1,"direct"
"218",4,44241,"","survey-text",4,223148,"0.0-4.0",51195,"group2","",157255,"{""Q0"":""i just checked my account online and have some charges that were not done by me. I need to cancel my card right away""}","high_entitlement",4,"institution","i just checked my account online and have some charges that were not done by me. I need to cancel my card right away","D",1,NA,"","",1,0,1,0,"Female",39,"high","institutional","D",1,"direct"
"219",5,41689,"","survey-text",5,265840,"0.0-5.0",51195,"group2","",157255,"{""Q0"":""My cat is stuck in the top of a tree and I need someone to help me get him down as soon as possible. Could you please send me some help?""}","low_entitlement",5,"institution","My cat is stuck in the top of a tree and I need someone to help me get him down as soon as possible. Could you please send me some help?","M",1,NA,"","",1,0,1,0,"Female",39,"low","institutional","M",1,"direct"
"220",6,34250,"","survey-text",6,301093,"0.0-6.0",51195,"group2","",157255,"{""Q0"":""I'm going to be in town for work. Do you think that I could stay with you while I'm in town?""}","low_entitlement",3,"urgency","I'm going to be in town for work. Do you think that I could stay with you while I'm in town?","W",1,NA,"","",1,0,1,0,"Female",39,"low","non_institutional","W",1,"indirect"
"221",7,37295,"","survey-text",7,339393,"0.0-7.0",51195,"group2","",157255,"{""Q0"":""I have a doctor's appointment that I really need to make it to. Could you possibly give me a ride?""}","low_entitlement",1,"urgency","I have a doctor's appointment that I really need to make it to. Could you possibly give me a ride?","M",1,NA,"","",1,0,1,0,"Female",39,"low","non_institutional","M",1,"direct"
"222",4,37950,"","survey-text",4,240032,"0.0-4.0",52915,"group2","",763515,"{""Q0"":""I have a doctor's appointment that I need to get to, do you mind taking me?""}","low_entitlement",1,"urgency","I have a doctor's appointment that I need to get to, do you mind taking me?","M",1,NA,"","",1,0,1,0,"Female",48,"low","non_institutional","M",1,"direct"
"223",5,70966,"","survey-text",5,312001,"0.0-5.0",52915,"group2","",763515,"{""Q0"":""Hi, I'm looking at my account and I see some charges that I did not make. Can you help me?""}","high_entitlement",4,"institution","Hi, I'm looking at my account and I see some charges that I did not make. Can you help me?","M",1,NA,"","",1,0,1,0,"Female",48,"high","institutional","M",1,"direct"
"224",6,125748,"","survey-text",6,438753,"0.0-6.0",52915,"group2","",763515,"{""Q0"":""Oh my gosh, I got lost and I am so thirsty. Can I have some water, please?""}","high_entitlement",2,"urgency","Oh my gosh, I got lost and I am so thirsty. Can I have some water, please?","M",1,NA,"","",1,0,1,0,"Female",48,"high","non_institutional","M",1,"direct"
"225",7,719291,"","survey-text",7,1159049,"0.0-7.0",52915,"group2","",763515,"{""Q0"":""I'm not sure how you feel about people dropping in to stay, but thought I would ask if you would mind me staying at your place? It would give us some time to catch up and hang out when I am not working.""}","low_entitlement",3,"urgency","I'm not sure how you feel about people dropping in to stay, but thought I would ask if you would mind me staying at your place? It would give us some time to catch up and hang out when I am not working.","W",1,NA,"1","",1,0,1,1,"Female",48,"low","non_institutional","W",1,"indirect"
"226",8,70132,"","survey-text",8,1230186,"0.0-8.0",52915,"group2","",763515,"{""Q0"":""My cat has been up there for hours and he's too scared to come down, and he's scared to death to come down. I've seen many cats who don't come down for days and become sick and dehydrated. I am also scared about the coyotes, if he comes down at night, the coyotes in this neighborhood will rip him apart. Please, please come help?""}","low_entitlement",5,"institution","My cat has been up there for hours and he's too scared to come down, and he's scared to death to come down. I've seen many cats who don't come down for days and become sick and dehydrated. I am also scared about the coyotes, if he comes down at night, the coyotes in this neighborhood will rip him apart. Please, please come help?","D",1,NA,"","Very intensive justification",1,0,1,0,"Female",48,"low","institutional","D",1,"direct"
"227",9,31300,"","survey-text",9,1262489,"0.0-9.0",52915,"group2","",763515,"{""Q0"":""I'm having an allergic reaction? Help! Should I come to you or call 911 or what? ""}","high_entitlement",6,"institution","I'm having an allergic reaction? Help! Should I come to you or call 911 or what? ","M",1,NA,"","",1,0,1,0,"Female",48,"high","institutional","M",1,"direct"
"228",2,61723,"","survey-text",2,99269,"0.0-2.0",5333,"group2","A3OC0ZHZBEPEA3",71308,"{""Q0"":""is the doctor present""}","high_entitlement",6,"institution","is the doctor present","D",NA,NA,"","?",0,0,0,0,"Female",30,"high","institutional","D",0,"direct"
"229",3,39292,"","survey-text",3,139572,"0.0-3.0",5333,"group2","A3OC0ZHZBEPEA3",71308,"{""Q0"":""can you host me?\n""}","low_entitlement",3,"urgency","can you host me?
","M",NA,NA,"","?",0,0,0,0,"Female",30,"low","non_institutional","M",0,"direct"
"230",4,58727,"","survey-text",4,199319,"0.0-4.0",5333,"group2","A3OC0ZHZBEPEA3",71308,"{""Q0"":""can i have some water please""}","high_entitlement",2,"urgency","can i have some water please","M",NA,NA,"","?",0,0,0,0,"Female",30,"high","non_institutional","M",0,"direct"
"231",5,85368,"","survey-text",5,285734,"0.0-5.0",5333,"group2","A3OC0ZHZBEPEA3",71308,"{""Q0"":""can i have some assistance""}","low_entitlement",5,"institution","can i have some assistance","M",NA,NA,"","?",0,0,0,0,"Female",30,"low","institutional","M",0,"direct"
"232",6,39968,"","survey-text",6,326734,"0.0-6.0",5333,"group2","A3OC0ZHZBEPEA3",71308,"{""Q0"":""can i have a ride dear""}","low_entitlement",1,"urgency","can i have a ride dear","M",NA,NA,"","?",0,0,0,0,"Female",30,"low","non_institutional","M",0,"direct"
"233",8,58868,"","survey-text",8,410167,"0.0-8.0",5333,"group2","A3OC0ZHZBEPEA3",71308,"{""Q0"":""can you cancel my card""}","high_entitlement",4,"institution","can you cancel my card","M",NA,NA,"","?",0,0,0,0,"Female",30,"high","institutional","M",0,"direct"
"234",2,31368,"","survey-text",2,97751,"0.0-2.0",59374,"group2","",840518,"{""Q0"":""Hi, my cat is stuck up in a tree and I need help getting her down.""}","low_entitlement",5,"institution","Hi, my cat is stuck up in a tree and I need help getting her down.","D",1,NA,"","",1,0,1,0,"Male",32,"low","institutional","D",1,"direct"
"235",5,37530,"","survey-text",5,171721,"0.0-5.0",59374,"group2","",840518,"{""Q0"":""So I'm going to be in town next week and I was wondering if I could stay with you while I there?""}","low_entitlement",3,"urgency","So I'm going to be in town next week and I was wondering if I could stay with you while I there?","W",1,NA,"","",1,0,1,0,"Male",32,"low","non_institutional","W",1,"indirect"
"236",6,29958,"","survey-text",6,202680,"0.0-6.0",59374,"group2","",840518,"{""Q0"":""Water!""}","high_entitlement",2,"urgency","Water!","D",NA,NA,"","",0,0,0,0,"Male",32,"high","non_institutional","D",0,"direct"
"237",7,60046,"","survey-text",7,263729,"0.0-7.0",59374,"group2","",840518,"{""Q0"":""Hi, I think somebody has committed fraud using my card. I see charges on here that aren't mine. Can you take a look at it, please?""}","high_entitlement",4,"institution","Hi, I think somebody has committed fraud using my card. I see charges on here that aren't mine. Can you take a look at it, please?","M",1,NA,"","",1,0,1,0,"Male",32,"high","institutional","M",1,"direct"
"238",8,44861,"","survey-text",8,309591,"0.0-8.0",59374,"group2","",840518,"{""Q0"":""Hi, I need to see the doctor as soon as possible. I'm having a really bad allergic reaction. I'm having trouble breathing.""}","high_entitlement",6,"institution","Hi, I need to see the doctor as soon as possible. I'm having a really bad allergic reaction. I'm having trouble breathing.","D",1,NA,"","",1,0,1,0,"Male",32,"high","institutional","D",1,"direct"
"239",9,33414,"","survey-text",9,344008,"0.0-9.0",59374,"group2","",840518,"{""Q0"":""Hey, could you please give me a ride to the doctor? I'll fill your tank up and take you out to eat after.""}","low_entitlement",1,"urgency","Hey, could you please give me a ride to the doctor? I'll fill your tank up and take you out to eat after.","M",NA,1,"","",0,1,1,0,"Male",32,"low","non_institutional","M",1,"direct"
"240",2,15773,"","survey-text",2,44467,"0.0-2.0",60475,"group1","",910859,"{""Q0"":""Can you grab me a water while you're up?""}","low_entitlement",2,"urgency","Can you grab me a water while you're up?","M",NA,NA,"","",0,0,0,0,"Male",43,"low","non_institutional","M",0,"direct"
"241",5,23613,"","survey-text",5,90358,"0.0-5.0",60475,"group1","",910859,"{""Q0"":""I'm at xxx address and I have an intruder in the house now.""}","high_entitlement",5,"institution","I'm at xxx address and I have an intruder in the house now.","D",NA,NA,"","",0,0,0,0,"Male",43,"high","institutional","D",0,"direct"
"242",6,14334,"","survey-text",6,105694,"0.0-6.0",60475,"group1","",910859,"{""Q0"":""I would like to make an appointment for a physical.""}","low_entitlement",6,"institution","I would like to make an appointment for a physical.","D",NA,NA,"","",0,0,0,0,"Male",43,"low","institutional","D",0,"direct"
"243",7,15494,"","survey-text",7,122189,"0.0-7.0",60475,"group1","",910859,"{""Q0"":""I would like to cancel my card, please.""}","low_entitlement",4,"institution","I would like to cancel my card, please.","D",NA,NA,"","",0,0,0,0,"Male",43,"low","institutional","D",0,"direct"
"244",8,24705,"","survey-text",8,147895,"0.0-8.0",60475,"group1","",910859,"{""Q0"":""Hi. I was wondering if there was any chance I could stay with you for a couple of days.""}","high_entitlement",3,"urgency","Hi. I was wondering if there was any chance I could stay with you for a couple of days.","W",NA,NA,"","",0,0,0,0,"Male",43,"high","non_institutional","W",0,"indirect"
"245",9,18181,"","survey-text",9,167078,"0.0-9.0",60475,"group1","",910859,"{""Q0"":""Dude, this is bad, could you drive me to the ER?""}","high_entitlement",1,"urgency","Dude, this is bad, could you drive me to the ER?","M",1,NA,"","",1,0,1,0,"Male",43,"high","non_institutional","M",1,"direct"
"246",2,54593,"","survey-text",2,93757,"0.0-2.0",6083,"group2","",787107,"{""Q0"":""Buddy, get me some water quick please, I really need it.""}","high_entitlement",2,"urgency","Buddy, get me some water quick please, I really need it.","D",1,NA,"","",1,0,1,0,"Male",43,"high","non_institutional","D",1,"direct"
"247",3,79678,"","survey-text",3,174436,"0.0-3.0",6083,"group2","",787107,"{""Q0"":""My cat has climbed a tree, cannot get down, and I am very afraid she will fall. Could you please send help?""}","low_entitlement",5,"institution","My cat has climbed a tree, cannot get down, and I am very afraid she will fall. Could you please send help?","M",1,NA,"","",1,0,1,0,"Male",43,"low","institutional","M",1,"direct"
"248",4,84197,"","survey-text",4,259636,"0.0-4.0",6083,"group2","",787107,"{""Q0"":""I have discovered some fraudulent charges on my credit card and so would like to close that card""}","high_entitlement",4,"institution","I have discovered some fraudulent charges on my credit card and so would like to close that card","D",1,NA,"","",1,0,1,0,"Male",43,"high","institutional","D",1,"direct"
"249",5,84277,"","survey-text",5,344915,"0.0-5.0",6083,"group2","",787107,"{""Q0"":""Hey, I'll be in town soon, Any chance i can crash at your pad. Should be fun!""}","low_entitlement",3,"urgency","Hey, I'll be in town soon, Any chance i can crash at your pad. Should be fun!","M",1,NA,"","",1,0,1,0,"Male",43,"low","non_institutional","M",1,"direct"
"250",8,36997,"","survey-text",8,462234,"0.0-8.0",6083,"group2","",787107,"{""Q0"":""Would you mind giving me a ride to the doctor?""}","low_entitlement",1,"urgency","Would you mind giving me a ride to the doctor?","M",NA,NA,"","",0,0,0,0,"Male",43,"low","non_institutional","M",0,"direct"
"251",9,64974,"","survey-text",9,528210,"0.0-9.0",6083,"group2","",787107,"{""Q0"":""I need to come in quick - I'm having an allergic reaction and am having trouble breathing.""}","high_entitlement",6,"institution","I need to come in quick - I'm having an allergic reaction and am having trouble breathing.","D",1,NA,"","",1,0,1,0,"Male",43,"high","institutional","D",1,"direct"
"252",2,65416,"","survey-text",2,113735,"0.0-2.0",61016,"group1","",212785,"{""Q0"":""Hi, I need to cancel my rewards credit card because I received a new one.""}","low_entitlement",4,"institution","Hi, I need to cancel my rewards credit card because I received a new one.","D",1,NA,"","",1,0,1,0,"Male",30,"low","institutional","D",1,"direct"
"253",3,79084,"","survey-text",3,193820,"0.0-3.0",61016,"group1","",212785,"{""Q0"":""Hey, a fire burned down half of my apartment building. I'm okay, but I need a place to stay. So, can I stay with you?""}","high_entitlement",3,"urgency","Hey, a fire burned down half of my apartment building. I'm okay, but I need a place to stay. So, can I stay with you?","M",1,NA,"","",1,0,1,0,"Male",30,"high","non_institutional","M",1,"direct"
"254",4,58228,"","survey-text",4,253050,"0.0-4.0",61016,"group1","",212785,"{""Q0"":""Please help, there is someone in the house and my alarm is ringing, what should I do?""}","high_entitlement",5,"institution","Please help, there is someone in the house and my alarm is ringing, what should I do?","D",1,NA,"","",1,0,1,0,"Male",30,"high","institutional","D",1,"direct"
"255",5,51018,"","survey-text",5,305070,"0.0-5.0",61016,"group1","",212785,"{""Q0"":""Can you take me to the hospital? This looks really bad.""}","high_entitlement",1,"urgency","Can you take me to the hospital? This looks really bad.","M",1,NA,"","",1,0,1,0,"Male",30,"high","non_institutional","M",1,"direct"
"256",6,48540,"","survey-text",6,354612,"0.0-6.0",61016,"group1","",212785,"{""Q0"":""Hey, while you're up, can you get me some water? Thanks""}","low_entitlement",2,"urgency","Hey, while you're up, can you get me some water? Thanks","M",NA,NA,"1","",0,0,0,1,"Male",30,"low","non_institutional","M",0,"direct"
"257",9,38682,"","survey-text",9,474781,"0.0-9.0",61016,"group1","",212785,"{""Q0"":""Hi, I'm calling about my annual physical. Is the doctor available?""}","low_entitlement",6,"institution","Hi, I'm calling about my annual physical. Is the doctor available?","D",NA,NA,"1","",0,0,0,1,"Male",30,"low","institutional","D",0,"direct"
"258",3,107632,"","survey-text",3,229449,"0.0-3.0",61815,"group1","",360798,"{""Q0"":""Please cancel the card, It is not useful to me,since I have more credit card""}","low_entitlement",4,"institution","Please cancel the card, It is not useful to me,since I have more credit card","D",1,NA,"","",1,0,1,0,"Male",49,"low","institutional","D",1,"direct"
"259",4,117539,"","survey-text",4,347992,"0.0-4.0",61815,"group1","",360798,"{""Q0"":""Hai, I Need badly your help, since my building electrical wires are burnt, It will take some time for repair, till that time I want to stay with you.""}","high_entitlement",3,"urgency","Hai, I Need badly your help, since my building electrical wires are burnt, It will take some time for repair, till that time I want to stay with you.","D",1,NA,"","",1,0,1,0,"Male",49,"high","non_institutional","D",1,"direct"
"260",6,38372,"","survey-text",6,439656,"0.0-6.0",61815,"group1","",360798,"{""Q0"":""Hai, Please fetch me some water for me..""}","low_entitlement",2,"urgency","Hai, Please fetch me some water for me..","D",NA,NA,"","",0,0,0,0,"Male",49,"low","non_institutional","D",0,"direct"
"261",7,54085,"","survey-text",7,494746,"0.0-7.0",61815,"group1","",360798,"{""Q0"":""Will you take me the to the emergency room??..""}","high_entitlement",1,"urgency","Will you take me the to the emergency room??..","M",NA,NA,"","",0,0,0,0,"Male",49,"high","non_institutional","M",0,"direct"
"262",8,33792,"","survey-text",8,529544,"0.0-8.0",61815,"group1","",360798,"{""Q0"":""May I get the appointment of the doctor?""}","low_entitlement",6,"institution","May I get the appointment of the doctor?","M",NA,NA,"","",0,0,0,0,"Male",49,"low","institutional","M",0,"direct"
"263",9,88610,"","survey-text",9,619159,"0.0-9.0",61815,"group1","",360798,"{""Q0"":""I think stranger is in my house can you a send a cop for my help immediately?""}","high_entitlement",5,"institution","I think stranger is in my house can you a send a cop for my help immediately?","M",1,NA,"","",1,0,1,0,"Male",49,"high","institutional","M",1,"direct"
"264",2,345746,"","survey-text",2,420779,"0.0-2.0",61890,"group2","",595080,"{""Q0"":""I'm having an allergic reaction and need help as soon as possible. is there any way I can see the doctor soon?""}","high_entitlement",6,"institution","I'm having an allergic reaction and need help as soon as possible. is there any way I can see the doctor soon?","M",1,NA,"","",1,0,1,0,"Female",32,"high","institutional","M",1,"direct"
"265",3,33396,"","survey-text",3,455177,"0.0-3.0",61890,"group2","",595080,"{""Q0"":""My pet has climbed up a tree and I can't get him down. Is there someone who can help me with this?""}","low_entitlement",5,"institution","My pet has climbed up a tree and I can't get him down. Is there someone who can help me with this?","M",1,NA,"","",1,0,1,0,"Female",32,"low","institutional","M",1,"direct"
"266",4,35536,"","survey-text",4,491716,"0.0-4.0",61890,"group2","",595080,"{""Q0"":""Someone has stolen my credit card number. I need to dispute the most recent charges and get a replacement card.""}","high_entitlement",4,"institution","Someone has stolen my credit card number. I need to dispute the most recent charges and get a replacement card.","D",1,NA,"","",1,0,1,0,"Female",32,"high","institutional","D",1,"direct"
"267",5,47253,"","survey-text",5,539971,"0.0-5.0",61890,"group2","",595080,"{""Q0"":""Hey, I'm going to be in town next month. Is it okay if I stay with you for a few days?""}","low_entitlement",3,"urgency","Hey, I'm going to be in town next month. Is it okay if I stay with you for a few days?","W",1,NA,"","",1,0,1,0,"Female",32,"low","non_institutional","W",1,"indirect"
"268",6,57411,"","survey-text",6,598384,"0.0-6.0",61890,"group2","",595080,"{""Q0"":""Water? Where is the water?""}","high_entitlement",2,"urgency","Water? Where is the water?","D",NA,NA,"","",0,0,0,0,"Female",32,"high","non_institutional","D",0,"direct"
"269",9,33782,"","survey-text",9,681453,"0.0-9.0",61890,"group2","",595080,"{""Q0"":""Hey, are you busy? Would you mind taking me to my doctor's appointment?""}","low_entitlement",1,"urgency","Hey, are you busy? Would you mind taking me to my doctor's appointment?","M",NA,NA,"1","",0,0,0,1,"Female",32,"low","non_institutional","M",0,"direct"
"270",2,129521,"","survey-text",2,266391,"0.0-2.0",62299,"group1","",200675,"{""Q0"":""I can't stay in my apartment building because an electrical fire burned half of it down, so I have no place to go? Could I stay with you for just a while?""}","high_entitlement",3,"urgency","I can't stay in my apartment building because an electrical fire burned half of it down, so I have no place to go? Could I stay with you for just a while?","M",1,NA,"","",1,0,1,0,"Female",55,"high","non_institutional","M",1,"direct"
"271",3,45945,"","survey-text",3,313343,"0.0-3.0",62299,"group1","",200675,"{""Q0"":""Hello. I'm calling to make an appointment for my yearly physical.""}","low_entitlement",6,"institution","Hello. I'm calling to make an appointment for my yearly physical.","D",NA,NA,"","",0,0,0,0,"Female",55,"low","institutional","D",0,"direct"
"272",4,83264,"","survey-text",4,397615,"0.0-4.0",62299,"group1","",200675,"{""Q0"":""I think I need to go to the emergency room, because all this blood loss is going to make me weak.""}","high_entitlement",1,"urgency","I think I need to go to the emergency room, because all this blood loss is going to make me weak.","D",1,NA,"","",1,0,1,0,"Female",55,"high","non_institutional","D",1,"direct"
"273",7,32186,"","survey-text",7,519967,"0.0-7.0",62299,"group1","",200675,"{""Q0"":""While you're up, could you get me some water?""}","low_entitlement",2,"urgency","While you're up, could you get me some water?","M",NA,NA,"1","",0,0,0,1,"Female",55,"low","non_institutional","M",0,"direct"
"274",8,26801,"","survey-text",8,547775,"0.0-8.0",62299,"group1","",200675,"{""Q0"":""Hello. I'm calling to cancel my credit card.""}","low_entitlement",4,"institution","Hello. I'm calling to cancel my credit card.","D",NA,NA,"","",0,0,0,0,"Female",55,"low","institutional","D",0,"direct"
"275",9,106609,"","survey-text",9,655391,"0.0-9.0",62299,"group1","",200675,"{""Q0"":""This is an emergency! Someone just broke into my house! Please, I need help as soon as possible! My address is ...""}","high_entitlement",5,"institution","This is an emergency! Someone just broke into my house! Please, I need help as soon as possible! My address is ...","D",NA,NA,"","",0,0,0,0,"Female",55,"high","institutional","D",0,"direct"
"276",2,109059,"","survey-text",2,166387,"0.0-2.0",6322,"group2","",896171,"{""Q0"":""So I am looking at my charges & it looks like my card info was stolen, so I need to know how to cancel it ASAP & how to get those charges reversed.""}","high_entitlement",4,"institution","So I am looking at my charges & it looks like my card info was stolen, so I need to know how to cancel it ASAP & how to get those charges reversed.","D",1,NA,"","",1,0,1,0,"Female",37,"high","institutional","D",1,"direct"
"277",3,40207,"","survey-text",3,207596,"0.0-3.0",6322,"group2","",896171,"{""Q0"":""So this is going to sound very Leave it to Beaver, but my dumb cat is actually stuck up a tree.""}","low_entitlement",5,"institution","So this is going to sound very Leave it to Beaver, but my dumb cat is actually stuck up a tree.","IS",NA,NA,"","",0,0,0,0,"Female",37,"low","institutional","IS",0,"indirect"
"278",4,43276,"","survey-text",4,251872,"0.0-4.0",6322,"group2","",896171,"{""Q0"":""I ate something I was allergic to & I'm having trouble breathing now, how soon can I come in?""}","high_entitlement",6,"institution","I ate something I was allergic to & I'm having trouble breathing now, how soon can I come in?","M",1,NA,"1","",1,0,1,1,"Female",37,"high","institutional","M",1,"direct"
"279",6,57434,"","survey-text",6,331718,"0.0-6.0",6322,"group2","",896171,"{""Q0"":""Hey! I have to be down there for work next week, and I'm wondering if there is any way I can crash in your spare room?""}","low_entitlement",3,"urgency","Hey! I have to be down there for work next week, and I'm wondering if there is any way I can crash in your spare room?","W",1,NA,"","",1,0,1,0,"Female",37,"low","non_institutional","W",1,"indirect"
"280",8,31953,"","survey-text",8,408297,"0.0-8.0",6322,"group2","",896171,"{""Q0"":""Hey, could you take me to the doctor by any chance? I'll buy lunch.""}","low_entitlement",1,"urgency","Hey, could you take me to the doctor by any chance? I'll buy lunch.","M",1,1,"","",1,1,1,0,"Female",37,"low","non_institutional","M",1,"direct"
"281",9,27110,"","survey-text",9,436409,"0.0-9.0",6322,"group2","",896171,"{""Q0"":""I got lost! Water, please!""}","high_entitlement",2,"urgency","I got lost! Water, please!","D",1,NA,"","",1,0,1,0,"Female",37,"high","non_institutional","D",1,"direct"
"282",2,48615,"","survey-text",2,105102,"0.0-2.0",637,"group2","",199139,"{""Q0"":""I would ask them how they're doing and catch up, but quickly let them know I'm calling because I'm out on work and it would help if I had a place to stay. I would then ask if it's cool if I could crash there for a little while.""}","low_entitlement",3,"urgency","I would ask them how they're doing and catch up, but quickly let them know I'm calling because I'm out on work and it would help if I had a place to stay. I would then ask if it's cool if I could crash there for a little while.","W",1,NA,"","",1,0,1,0,"Male",24,"low","non_institutional","W",1,"indirect"
"283",3,14205,"","survey-text",3,120310,"0.0-3.0",637,"group2","",199139,"{""Q0"":""Hey could you get me some water please I'm dying?""}","high_entitlement",2,"urgency","Hey could you get me some water please I'm dying?","M",1,NA,"","",1,0,1,0,"Male",24,"high","non_institutional","M",1,"direct"
"284",4,19184,"","survey-text",4,140498,"0.0-4.0",637,"group2","",199139,"{""Q0"":""Hey I think I'm having an allergic reaction I need the doctor now.""}","high_entitlement",6,"institution","Hey I think I'm having an allergic reaction I need the doctor now.","D",1,NA,"","",1,0,1,0,"Male",24,"high","institutional","D",1,"direct"
