"","stimNum","stimType","request","rt","url","trial_type","trial_index","time_elapsed","internal_node_id","subject","group","turkID","surveyCode","responses","type.x","Code.ST","Preface.ST","Contingencies.ST","Comments.ST","Preface2.ST","Contingencies2.ST","Just1.ST","Just2.ST","JustAll.ST","Gender","Age","Code.AL","Preface.AL","Contingencies.AL","Comments.AL","Code.SB","Reason.SB","Repayment.SB","Contingencies.SB","Comments.SB","condition","length","situation","justification","contingencies","formatting","directness","conts.coded","just.coded","Reason.JV","type.y","mean_entitlement","sd_entitlement","mean_imposition","sd_imposition","mean_power","sd_power","mean_distance","sd_distance"
"1",1,"high_entitlement","Any chance you could spare some time to help me move my desk? Thanks!",30978,"","survey-text",7,439517,"0.0-7.0",75040,"group1","",342904,"{""Q0"":""Any chance you could spare some time to help me move my desk? Thanks!""}","interaction","EM",NA,NA,"",0,0,0,0,"None","Male",31,"","","","","",NA,NA,NA,"","high",78,"interaction",0,0,"EM","EM","no","no",NA,"interaction",5.25,1.85081925505805,3.6875,1.65228726058436,4.33333333333333,1.31008093518591,4.70833333333333,1.09074117555758
"2",1,"high_entitlement","if you have a chance could you please help me move this desk in my room",36858,"","survey-text",6,187255,"0.0-6.0",55368,"group1","AGDJB8B8CDZ71",850786,"{""Q0"":""if you have a chance could you please help me move this desk in my room""}","interaction","M",NA,1,"""if you have a chance""",0,1,0,0,"None","Male",34,"","","","","",NA,NA,NA,"","high",80,"interaction",0,1,"M","M","yes","no",NA,"interaction",5.25,1.85081925505805,3.6875,1.65228726058436,4.33333333333333,1.31008093518591,4.70833333333333,1.09074117555758
"3",1,"high_entitlement","Can you help me move my desk into my bedroom?",38917,"","survey-text",3,159288,"0.0-3.0",91013,"group1","",294599,"{""Q0"":""Can you help me move my desk into my bedroom?""}","interaction","M",NA,NA,"",0,0,0,0,"None","Female",31,"M","0","0","","M",0,0,0,"","high",54,"interaction",0,0,"M","M","no","no",NA,"interaction",5.25,1.85081925505805,3.6875,1.65228726058436,4.33333333333333,1.31008093518591,4.70833333333333,1.09074117555758
"4",1,"high_entitlement","I know I didn't help you much, but can you help me move the desk into my room?",27767,"","survey-text",5,141015,"0.0-5.0",59507,"group1","",328856,"{""Q0"":""I know I didn't help you much, but can you help me move the desk into my room?""}","interaction","M",NA,NA,"Complex: ""I know I didn't help you much‹",0,0,0,0,"None","Male",33,"","","","","",NA,NA,NA,"","high",87,"interaction",0,0,"M","M","no","no",NA,"interaction",5.25,1.85081925505805,3.6875,1.65228726058436,4.33333333333333,1.31008093518591,4.70833333333333,1.09074117555758
"5",1,"high_entitlement","Hey man, I have a desk that I still need to move into my bedroom, could you lend a hand?",49740,"","survey-text",5,262805,"0.0-5.0",89429,"group1","",99387,"{""Q0"":""Hey man, I have a desk that I still need to move into my bedroom, could you lend a hand?""}","interaction","M",1,NA,"",1,0,1,0,"Reason","Male",24,"","","","","",NA,NA,NA,"","high",97,"interaction",1,0,"M","M","no","yes",NA,"interaction",5.25,1.85081925505805,3.6875,1.65228726058436,4.33333333333333,1.31008093518591,4.70833333333333,1.09074117555758
"6",1,"high_entitlement","Could you lend me a quick hand with moving my desk since I helped you out earlier?",46237,"","survey-text",2,59590,"0.0-2.0",43857,"group1","",516593,"{""Q0"":""Could you lend me a quick hand with moving my desk since I helped you out earlier?""}","interaction","M",1,NA,"Explains how they helped before",1,0,1,0,"Reason","Male",28,"M","1","0","","M",1,0,0,"","high",91,"interaction",1,0,"M","M","no","yes",NA,"interaction",5.25,1.85081925505805,3.6875,1.65228726058436,4.33333333333333,1.31008093518591,4.70833333333333,1.09074117555758
"7",1,"high_entitlement","I almost threw my back out. Please help me with this desk. Thanks.",23049,"","survey-text",3,169448,"0.0-3.0",82767,"group1","",46748,"{""Q0"":""I almost threw my back out. Please help me with this desk. Thanks.""}","interaction","D",1,NA,"",1,0,1,0,"Reason","Male",29,"D","1","0","","D",1,0,0,"","high",75,"interaction",1,0,"D","D","no","yes",NA,"interaction",5.25,1.85081925505805,3.6875,1.65228726058436,4.33333333333333,1.31008093518591,4.70833333333333,1.09074117555758
"8",1,"high_entitlement","Hey colleague, I still got to move my desk after all this work.  Any chance I could get some help please?",39870,"","survey-text",8,418226,"0.0-8.0",49665,"group1","",958968,"{""Q0"":""Hey colleague, I still got to move my desk after all this work.  Any chance I could get some help please?""}","interaction","EM",1,NA,"",1,0,1,0,"Reason","Male",41,"","","","","",NA,NA,NA,"","high",114,"interaction",1,0,"EM","EM","no","yes",NA,"interaction",5.25,1.85081925505805,3.6875,1.65228726058436,4.33333333333333,1.31008093518591,4.70833333333333,1.09074117555758
"9",1,"high_entitlement","Dude, could you give me a hand with my desk, please?",44062,"","survey-text",7,308432,"0.0-7.0",34992,"group1","",249218,"{""Q0"":""Dude, could you give me a hand with my desk, please?""}","interaction","M",NA,NA,"",0,0,0,0,"None","Male",45,"M","0","0","","M",0,0,0,"","high",61,"interaction",0,0,"M","M","no","no",NA,"interaction",5.25,1.85081925505805,3.6875,1.65228726058436,4.33333333333333,1.31008093518591,4.70833333333333,1.09074117555758
"10",1,"high_entitlement","Can you help with my move",11162,"","survey-text",9,120780,"0.0-9.0",6582,"group1","",277836,"{""Q0"":""Can you help with my move""}","interaction","M",NA,NA,"",0,0,0,0,"None","Male",27,"","","","","",NA,NA,NA,"","high",34,"interaction",0,0,"M","M","no","no",NA,"interaction",5.25,1.85081925505805,3.6875,1.65228726058436,4.33333333333333,1.31008093518591,4.70833333333333,1.09074117555758
"11",1,"high_entitlement","Can you help me move?",36926,"","survey-text",8,178540,"0.0-8.0",49422,"group1","A35TWG9VW1MB5S",347341,"{""Q0"":""Can you help me move?""}","interaction","M",NA,NA,"",0,0,0,0,"None","Female",69,"","","","","",NA,NA,NA,"","high",30,"interaction",0,0,"M","M","no","no",NA,"interaction",5.25,1.85081925505805,3.6875,1.65228726058436,4.33333333333333,1.31008093518591,4.70833333333333,1.09074117555758
"12",1,"high_entitlement","Hey can you help me bring this desk into my room?",54839,"","survey-text",6,221190,"0.0-6.0",74756,"group1","",595239,"{""Q0"":""Hey can you help me bring this desk into my room?""}","interaction","M",NA,NA,"",0,0,0,0,"None","Female",29,"","","","","",NA,NA,NA,"","high",58,"interaction",0,0,"M","M","no","no",NA,"interaction",5.25,1.85081925505805,3.6875,1.65228726058436,4.33333333333333,1.31008093518591,4.70833333333333,1.09074117555758
"13",1,"high_entitlement","Would you mind giving me a hand with my desk?  I really want to finish up as my back hurts.",32775,"","survey-text",7,242402,"0.0-7.0",63745,"group1","",337297,"{""Q0"":""Would you mind giving me a hand with my desk?  I really want to finish up as my back hurts.""}","interaction","EM",1,NA,"",1,0,1,0,"Reason","Male",42,"","","","","",NA,NA,NA,"","high",100,"interaction",1,0,"EM","EM","no","yes",NA,"interaction",5.25,1.85081925505805,3.6875,1.65228726058436,4.33333333333333,1.31008093518591,4.70833333333333,1.09074117555758
"14",1,"high_entitlement","I know your hurt,  but could you help me move this stuff in. ",41036,"","survey-text",8,773849,"0.0-8.0",39966,"group1","",72820,"{""Q0"":""I know your hurt,  but could you help me move this stuff in. ""}","interaction","M",NA,1,"",0,1,0,0,"None","Female",35,"","","","","",NA,NA,NA,"","high",70,"interaction",0,1,"M","M","yes","no",NA,"interaction",5.25,1.85081925505805,3.6875,1.65228726058436,4.33333333333333,1.31008093518591,4.70833333333333,1.09074117555758
"15",1,"high_entitlement","Phew! Now I just need your help for this last piece of furniture.",39777,"","survey-text",3,116551,"0.0-3.0",1392,"group1","",602783,"{""Q0"":""Phew! Now I just need your help for this last piece of furniture.""}","interaction","D",NA,NA,"",0,0,0,0,"None","Female",57,"D","0","0","","IS",0,0,0,"","high",74,"interaction",0,0,"D","D","no","no",NA,"interaction",5.25,1.85081925505805,3.6875,1.65228726058436,4.33333333333333,1.31008093518591,4.70833333333333,1.09074117555758
"16",1,"high_entitlement","""Would you be able to help me to move my desk...my back is killing me""",26250,"","survey-text",3,65727,"0.0-3.0",15859,"group1","",78335,"{""Q0"":""\""Would you be able to help me to move my desk...my back is killing me\""""}","interaction","EM",1,NA,"",1,0,1,0,"Reason","Male",45,"EM","1","0","","EM",1,0,0,"","high",81,"interaction",1,0,"EM","EM","no","yes",NA,"interaction",5.25,1.85081925505805,3.6875,1.65228726058436,4.33333333333333,1.31008093518591,4.70833333333333,1.09074117555758
"17",1,"high_entitlement","Can you help me?",8399,"","survey-text",5,61565,"0.0-5.0",72774,"group1","",581306,"{""Q0"":""Can you help me?""}","interaction","M",NA,NA,"",0,0,0,0,"None","Male",30,"","","","","",NA,NA,NA,"","high",25,"interaction",0,0,"M","M","no","no",NA,"interaction",5.25,1.85081925505805,3.6875,1.65228726058436,4.33333333333333,1.31008093518591,4.70833333333333,1.09074117555758
"18",1,"high_entitlement","Hey man, gimme a hand with my desk will ya?",23288,"","survey-text",9,268592,"0.0-9.0",22232,"group1","",128793,"{""Q0"":""Hey man, gimme a hand with my desk will ya?""}","interaction","D",NA,NA,"",0,0,0,0,"None","Male",47,"","","","","",NA,NA,NA,"","high",52,"interaction",0,0,"D","D","no","no",NA,"interaction",5.25,1.85081925505805,3.6875,1.65228726058436,4.33333333333333,1.31008093518591,4.70833333333333,1.09074117555758
"19",1,"high_entitlement","Hey give me a hand with this desk really quick.",23639,"","survey-text",8,270912,"0.0-8.0",7730,"group1","",682846,"{""Q0"":""Hey give me a hand with this desk really quick.""}","interaction","D",NA,NA,"",0,0,0,0,"None","Male",34,"","","","","",NA,NA,NA,"","high",56,"interaction",0,0,"D","D","no","no",NA,"interaction",5.25,1.85081925505805,3.6875,1.65228726058436,4.33333333333333,1.31008093518591,4.70833333333333,1.09074117555758
"20",1,"high_entitlement","Hey man, I've just about wrecked my back, could you take one end of my desk?",44878,"","survey-text",4,187166,"0.0-4.0",23737,"group1","",197120,"{""Q0"":""Hey man, I've just about wrecked my back, could you take one end of my desk?""}","interaction","M",1,NA,"",1,0,1,0,"Reason","Male",27,"M","1","0","","M",1,0,0,"","high",85,"interaction",1,0,"M","M","no","yes",NA,"interaction",5.25,1.85081925505805,3.6875,1.65228726058436,4.33333333333333,1.31008093518591,4.70833333333333,1.09074117555758
"21",1,"high_entitlement","Hey, do you know someone else who can help us with this desk? My back can't take much more. ",65964,"","survey-text",2,86546,"0.0-2.0",63609,"group1","",434142,"{""Q0"":""Hey, do you know someone else who can help us with this desk? My back can't take much more. ""}","interaction","EM",1,NA,"",1,0,1,0,"Reason","Female",29,"","","","","",NA,NA,NA,"","high",101,"interaction",1,0,"EM","EM","no","yes",NA,"interaction",5.25,1.85081925505805,3.6875,1.65228726058436,4.33333333333333,1.31008093518591,4.70833333333333,1.09074117555758
"22",1,"high_entitlement","Hey, we're not finished yet--can you help me get my desk into my room?",32014,"","survey-text",7,246958,"0.0-7.0",63004,"group1","A3UEJQ4EJB9DBD",301767,"{""Q0"":""Hey, we're not finished yet--can you help me get my desk into my room?""}","interaction","M",NA,NA,"",0,0,0,0,"None","Male",52,"","","","","",NA,NA,NA,"","high",79,"interaction",0,0,"M","M","no","no",NA,"interaction",5.25,1.85081925505805,3.6875,1.65228726058436,4.33333333333333,1.31008093518591,4.70833333333333,1.09074117555758
"23",1,"high_entitlement","Could you please help me move my desk into my room?",30649,"","survey-text",3,81375,"0.0-3.0",52885,"group1","",147191,"{""Q0"":""Could you please help me move my desk into my room?""}","interaction","M",NA,NA,"",0,0,0,0,"None","Male",31,"","","","","",NA,NA,NA,"","high",60,"interaction",0,0,"M","M","no","no",NA,"interaction",5.25,1.85081925505805,3.6875,1.65228726058436,4.33333333333333,1.31008093518591,4.70833333333333,1.09074117555758
"24",1,"high_entitlement","Could you help me move my desk back into the bedroom? I seemed to have hurt my back.",36331,"","survey-text",8,257891,"0.0-8.0",86201,"group1","",732059,"{""Q0"":""Could you help me move my desk back into the bedroom? I seemed to have hurt my back.""}","interaction","M",1,NA,"",1,0,1,0,"Reason","Male",33,"","","","","",NA,NA,NA,"","high",93,"interaction",1,0,"M","M","no","yes",NA,"interaction",5.25,1.85081925505805,3.6875,1.65228726058436,4.33333333333333,1.31008093518591,4.70833333333333,1.09074117555758
"25",1,"high_entitlement","Would you mind helping me move this desk?",17471,"","survey-text",6,84503,"0.0-6.0",87835,"group1","",798603,"{""Q0"":""Would you mind helping me move this desk?""}","interaction","EM",NA,NA,"",0,0,0,0,"None","Male",46,"EM","0","0","","EM",0,0,0,"","high",50,"interaction",0,0,"EM","EM","no","no",NA,"interaction",5.25,1.85081925505805,3.6875,1.65228726058436,4.33333333333333,1.31008093518591,4.70833333333333,1.09074117555758
"26",1,"high_entitlement","mate i need you to help me move this desk please",59055,"","survey-text",8,334874,"0.0-8.0",92695,"group1","",514094,"{""Q0"":""mate i need you to help me move this desk please""}","interaction","D",NA,NA,"",0,0,0,0,"None","Male",35,"","","","","",NA,NA,NA,"","high",57,"interaction",0,0,"D","D","no","no",NA,"interaction",5.25,1.85081925505805,3.6875,1.65228726058436,4.33333333333333,1.31008093518591,4.70833333333333,1.09074117555758
"27",1,"high_entitlement","Hey help me move my desk",21717,"","survey-text",3,124100,"0.0-3.0",52422,"group1","",440803,"{""Q0"":""Hey help me move my desk""}","interaction","D",NA,NA,"",0,0,0,0,"None","Male",23,"","","","","",NA,NA,NA,"","high",33,"interaction",0,0,"D","D","no","no",NA,"interaction",5.25,1.85081925505805,3.6875,1.65228726058436,4.33333333333333,1.31008093518591,4.70833333333333,1.09074117555758
"28",1,"high_entitlement","Can you help me with my stuff?",10879,"","survey-text",7,142802,"0.0-7.0",85277,"group1","",458205,"{""Q0"":""Can you help me with my stuff?""}","interaction","M",NA,NA,"",0,0,0,0,"None","Male",30,"","","","","",NA,NA,NA,"","high",39,"interaction",0,0,"M","M","no","no",NA,"interaction",5.25,1.85081925505805,3.6875,1.65228726058436,4.33333333333333,1.31008093518591,4.70833333333333,1.09074117555758
"29",1,"high_entitlement","Can you give me a hand with this stuff? My back hurts after all of that moving.",19450,"","survey-text",9,172373,"0.0-9.0",77798,"group1","",431436,"{""Q0"":""Can you give me a hand with this stuff? My back hurts after all of that moving.""}","interaction","M",1,NA,"",1,0,1,0,"Reason","Male",27,"","","","","",NA,NA,NA,"","high",88,"interaction",1,0,"M","M","no","yes",NA,"interaction",5.25,1.85081925505805,3.6875,1.65228726058436,4.33333333333333,1.31008093518591,4.70833333333333,1.09074117555758
"30",1,"low_entitlement","Do you know anyone who can help lift furniture? I can pay some money and buy them dinner, or you if you want to help.",30280,"","survey-text",3,109176,"0.0-3.0",11845,"group2","",439184,"{""Q0"":""Do you know anyone who can help lift furniture? I can pay some money and buy them dinner, or you if you want to help.""}","interaction","IS",1,NA,"",1,0,0,1,"Repay","Male",30,"","","","","",NA,NA,NA,"","low",126,"interaction",1,0,"IS","IS","no","yes",NA,"interaction",4.03846153846154,1.78184238714016,5.28846153846154,1.25770626050258,5.01923076923077,1.24444466889318,4.76923076923077,1.24641265025711
"31",1,"low_entitlement","Hey, do you mind helping me move some furniture? I have more than, I though I did.",68301,"","survey-text",2,95248,"0.0-2.0",66118,"group2","A1153ZIEQX0ZJ8",428165,"{""Q0"":""Hey, do you mind helping me move some furniture? I have more than, I though I did.""}","interaction","EM",NA,NA,"",0,0,0,0,"None","Male",27,"EM","0","0","","EM",1,0,0,"","low",91,"interaction",0,0,"EM","EM","no","no",1,"interaction",4.03846153846154,1.78184238714016,5.28846153846154,1.25770626050258,5.01923076923077,1.24444466889318,4.76923076923077,1.24641265025711
"32",1,"low_entitlement","Do you think you help me move some of my furniture?  Dinner is on me tonight for sure.",58079,"","survey-text",6,201580,"0.0-6.0",19648,"group2","",676715,"{""Q0"":""Do you think you help me move some of my furniture?  Dinner is on me tonight for sure.""}","interaction","EM",1,NA,"",1,0,0,1,"Repay","Female",29,"","","","","",NA,NA,NA,"","low",95,"interaction",1,0,"EM","EM","no","yes",NA,"interaction",4.03846153846154,1.78184238714016,5.28846153846154,1.25770626050258,5.01923076923077,1.24444466889318,4.76923076923077,1.24641265025711
"33",1,"low_entitlement","Can you help me in carrying my furniture? I would be grateful.",73385,"","survey-text",4,260178,"0.0-4.0",93211,"group2","",961202,"{""Q0"":""Can you help me in carrying my furniture? I would be grateful.""}","interaction","M",NA,NA,"",0,0,0,0,"None","Male",25,"M","0","0","","M",0,0,0,"","low",71,"interaction",0,0,"M","M","no","no",NA,"interaction",4.03846153846154,1.78184238714016,5.28846153846154,1.25770626050258,5.01923076923077,1.24444466889318,4.76923076923077,1.24641265025711
"34",1,"low_entitlement","Can you help bring the furniture in? It's really heavy and I don't think I can do it myself. ",34424,"","survey-text",4,174120,"0.0-4.0",58827,"group2","",829464,"{""Q0"":""Can you help bring the furniture in? It's really heavy and I don't think I can do it myself. ""}","interaction","M",1,NA,"",1,0,1,0,"Reason","Male",30,"","","","","",NA,NA,NA,"","low",102,"interaction",1,0,"M","M","no","yes",NA,"interaction",4.03846153846154,1.78184238714016,5.28846153846154,1.25770626050258,5.01923076923077,1.24444466889318,4.76923076923077,1.24641265025711
"35",1,"low_entitlement","Would you mind helping me move this stuff?",30062,"","survey-text",4,127890,"0.0-4.0",62946,"group2","",336117,"{""Q0"":""Would you mind helping me move this stuff?""}","interaction","EM",NA,NA,"",0,0,0,0,"None","Male",37,"","","","","",NA,NA,NA,"","low",51,"interaction",0,0,"EM","EM","no","no",NA,"interaction",4.03846153846154,1.78184238714016,5.28846153846154,1.25770626050258,5.01923076923077,1.24444466889318,4.76923076923077,1.24641265025711
"36",1,"low_entitlement","Thanks for the help arranging the U-haul. Could you help me finish moving in? It's too heavy for me to carry alone.",96006,"","survey-text",9,705806,"0.0-9.0",94586,"group2","",107712,"{""Q0"":""Thanks for the help arranging the U-haul. Could you help me finish moving in? It's too heavy for me to carry alone.""}","interaction","M",1,NA,"",1,0,1,0,"Reason","Male",27,"","","","","",NA,NA,NA,"","low",124,"interaction",1,0,"M","M","no","yes",NA,"interaction",4.03846153846154,1.78184238714016,5.28846153846154,1.25770626050258,5.01923076923077,1.24444466889318,4.76923076923077,1.24641265025711
"37",1,"low_entitlement","Would you mind helping me move my stuff in too? I'll pay for dinner.",25020,"","survey-text",6,165067,"0.0-6.0",87042,"group2","",983620,"{""Q0"":""Would you mind helping me move my stuff in too? I'll pay for dinner.""}","interaction","EM",1,NA,"",1,0,0,1,"Repay","Male",29,"","","","","",NA,NA,NA,"","low",77,"interaction",1,0,"EM","EM","no","yes",NA,"interaction",4.03846153846154,1.78184238714016,5.28846153846154,1.25770626050258,5.01923076923077,1.24444466889318,4.76923076923077,1.24641265025711
"38",1,"low_entitlement","Hey man I would really appreciate it if you could help me move my stuff, I'll get ya back.",28456,"","survey-text",8,231856,"0.0-8.0",51743,"group2","",701805,"{""Q0"":""Hey man I would really appreciate it if you could help me move my stuff, I'll get ya back.""}","interaction","EM",1,NA,"",1,0,0,1,"Repay","Male",28,"","","","","",NA,NA,NA,"","low",99,"interaction",1,0,"EM","EM","no","yes",NA,"interaction",4.03846153846154,1.78184238714016,5.28846153846154,1.25770626050258,5.01923076923077,1.24444466889318,4.76923076923077,1.24641265025711
"39",1,"low_entitlement","I'm so sorry, but could you help me with this? I'll owe you. ",29760,"","survey-text",6,261601,"0.0-6.0",58100,"group2","",374055,"{""Q0"":""I'm so sorry, but could you help me with this? I'll owe you. ""}","interaction","M",1,NA,"",1,0,0,1,"Repay","Female",38,"","","","","",NA,NA,NA,"","low",70,"interaction",1,0,"M","M","no","yes",NA,"interaction",4.03846153846154,1.78184238714016,5.28846153846154,1.25770626050258,5.01923076923077,1.24444466889318,4.76923076923077,1.24641265025711
"40",1,"low_entitlement","Will you be able to help me move some of my furniture?",28849,"","survey-text",9,277400,"0.0-9.0",24940,"group2","",926051,"{""Q0"":""Will you be able to help me move some of my furniture?""}","interaction","M",NA,NA,"",0,0,0,0,"None","Male",49,"","","","","",NA,NA,NA,"","low",63,"interaction",0,0,"M","M","no","no",NA,"interaction",4.03846153846154,1.78184238714016,5.28846153846154,1.25770626050258,5.01923076923077,1.24444466889318,4.76923076923077,1.24641265025711
"41",1,"low_entitlement","Any chance would could help me move?",24195,"","survey-text",6,151646,"0.0-6.0",93949,"group2","",391329,"{""Q0"":""Any chance would could help me move?""}","interaction","M",NA,NA,"",0,0,0,0,"None","Female",25,"M","0","0","","O",0,0,0,"incorrect sentence? OTHERWISE EM","low",45,"interaction",0,0,"M","M","no","no",NA,"interaction",4.03846153846154,1.78184238714016,5.28846153846154,1.25770626050258,5.01923076923077,1.24444466889318,4.76923076923077,1.24641265025711
"42",1,"low_entitlement","Hey, could you help me move this stuff? I'll buy you lunch. ",85516,"","survey-text",2,202386,"0.0-2.0",27819,"group2","",117980,"{""Q0"":""Hey, could you help me move this stuff? I'll buy you lunch. ""}","interaction","M",1,NA,"Offers to buy lunch (display of entitlement)",1,0,0,1,"Repay","Male",35,"M","1","0","","M",1,1,0,"","low",69,"interaction",1,0,"M","M","no","yes",NA,"interaction",4.03846153846154,1.78184238714016,5.28846153846154,1.25770626050258,5.01923076923077,1.24444466889318,4.76923076923077,1.24641265025711
"43",1,"low_entitlement","Hey Bro. Could you help me move this stuff in? I hate to ask but it's heavy and I can't find anyone else to help me at the moment.",31838,"","survey-text",8,265816,"0.0-8.0",99586,"group2","",650908,"{""Q0"":""Hey Bro. Could you help me move this stuff in? I hate to ask but it's heavy and I can't find anyone else to help me at the moment.""}","interaction","M",1,NA,"",1,0,1,0,"Reason","Male",39,"","","","","",NA,NA,NA,"","low",139,"interaction",1,0,"M","M","no","yes",NA,"interaction",4.03846153846154,1.78184238714016,5.28846153846154,1.25770626050258,5.01923076923077,1.24444466889318,4.76923076923077,1.24641265025711
"44",1,"low_entitlement","Hey, one last favor: can you help me move these. They#re really heavy.",52896,"","survey-text",9,332840,"0.0-9.0",61228,"group2","",195884,"{""Q0"":""Hey, one last favor: can you help me move these. They#re really heavy.""}","interaction","M",1,NA,"",1,0,1,0,"Reason","Male",27,"","","","","",NA,NA,NA,"","low",79,"interaction",1,0,"M","M","no","yes",NA,"interaction",4.03846153846154,1.78184238714016,5.28846153846154,1.25770626050258,5.01923076923077,1.24444466889318,4.76923076923077,1.24641265025711
"45",1,"low_entitlement","Hey, I'm really sorry to have to ask you this, but do you think there's any way you might be able to help me move a few of my things? I know you're already done a lot to help and I really appreciate it, but I could still really use a hand.",51803,"","survey-text",2,82431,"0.0-2.0",64740,"group2","",802490,"{""Q0"":""Hey, I'm really sorry to have to ask you this, but do you think there's any way you might be able to help me move a few of my things? I know you're already done a lot to help and I really appreciate it, but I could still really use a hand.""}","interaction","EM",1,NA,"",1,0,1,0,"Reason","Female",29,"","","","","",NA,NA,NA,"","low",248,"interaction",1,0,"EM","EM","no","yes",NA,"interaction",4.03846153846154,1.78184238714016,5.28846153846154,1.25770626050258,5.01923076923077,1.24444466889318,4.76923076923077,1.24641265025711
"46",1,"low_entitlement","Thanks for all the help. I was wondering if there was one more thing you could help me with. I have furniture, a lot of it, and I cant move it by myself, I am wondering if you can help me move it, please?",36102,"","survey-text",9,193655,"0.0-9.0",6328,"group2","",434577,"{""Q0"":""Thanks for all the help. I was wondering if there was one more thing you could help me with. I have furniture, a lot of it, and I cant move it by myself, I am wondering if you can help me move it, please?""}","interaction","EM",1,NA,"",1,0,1,0,"Reason","Female",25,"","","","","",NA,NA,NA,"","low",213,"interaction",1,0,"EM","EM","no","yes",NA,"interaction",4.03846153846154,1.78184238714016,5.28846153846154,1.25770626050258,5.01923076923077,1.24444466889318,4.76923076923077,1.24641265025711
"47",1,"low_entitlement","I have furniture we can use for the apartment. Do you think you can help moving it in",46326,"","survey-text",9,365128,"0.0-9.0",17154,"group2","",778898,"{""Q0"":""I have furniture we can use for the apartment. Do you think you can help moving it in""}","interaction","EM",1,NA,"",1,0,1,0,"Reason","Female",29,"","","","","",NA,NA,NA,"","low",94,"interaction",1,0,"EM","EM","no","yes",NA,"interaction",4.03846153846154,1.78184238714016,5.28846153846154,1.25770626050258,5.01923076923077,1.24444466889318,4.76923076923077,1.24641265025711
"48",1,"low_entitlement","I know that you have helped out a lot so far but cloud I ask you to help move my stuff. ",47679,"","survey-text",5,317713,"0.0-5.0",10233,"group2","",128454,"{""Q0"":""I know that you have helped out a lot so far but cloud I ask you to help move my stuff. ""}","interaction","M",NA,1,"",0,1,0,0,"None","Male",34,"M","0","0","","EM",0,0,1,"","low",97,"interaction",0,1,"M","M","yes","no",NA,"interaction",4.03846153846154,1.78184238714016,5.28846153846154,1.25770626050258,5.01923076923077,1.24444466889318,4.76923076923077,1.24641265025711
"49",1,"low_entitlement","""I know you helped me with the U-haul already, but I could really use your help with the furniture too, is that okay; I would really appreciate it?""",34959,"","survey-text",4,103564,"0.0-4.0",77780,"group2","A1KH1O9AZ7S642",962311,"{""Q0"":""\""I know you helped me with the U-haul already, but I could really use your help with the furniture too, is that okay; I would really appreciate it?\""""}","interaction","EM",1,NA,"",1,0,1,0,"Reason","Male",24,"","","","","",NA,NA,NA,"","low",159,"interaction",1,0,"EM","EM","no","yes",NA,"interaction",4.03846153846154,1.78184238714016,5.28846153846154,1.25770626050258,5.01923076923077,1.24444466889318,4.76923076923077,1.24641265025711
"50",1,"low_entitlement","Can you help me move some furniture? It's way too heavy for just me.",27269,"","survey-text",8,216534,"0.0-8.0",22753,"group2","A1BH6H9WRK49I",15719,"{""Q0"":""Can you help me move some furniture? It's way too heavy for just me.""}","interaction","M",1,NA,"",1,0,1,0,"Reason","Female",24,"","","","","",NA,NA,NA,"","low",77,"interaction",1,0,"M","M","no","yes",NA,"interaction",4.03846153846154,1.78184238714016,5.28846153846154,1.25770626050258,5.01923076923077,1.24444466889318,4.76923076923077,1.24641265025711
"51",1,"low_entitlement","Can you help me with moving the furniture?",13877,"","survey-text",5,70528,"0.0-5.0",23266,"group2","",219492,"{""Q0"":""Can you help me with moving the furniture?""}","interaction","M",NA,NA,"",0,0,0,0,"None","Female",33,"","","","","",NA,NA,NA,"","low",51,"interaction",0,0,"M","M","no","no",NA,"interaction",4.03846153846154,1.78184238714016,5.28846153846154,1.25770626050258,5.01923076923077,1.24444466889318,4.76923076923077,1.24641265025711
"52",1,"low_entitlement","Hey...I know this sucks but I need a little help moving the big stuff in.  I'll grab a pizza and some beers afterwards!",23011,"","survey-text",7,165544,"0.0-7.0",10094,"group2","",126501,"{""Q0"":""Hey...I know this sucks but I need a little help moving the big stuff in.  I'll grab a pizza and some beers afterwards!""}","interaction","D",1,NA,"",1,0,0,1,"Repay","Male",30,"","","","","",NA,NA,NA,"","low",128,"interaction",1,0,"D","D","no","yes",NA,"interaction",4.03846153846154,1.78184238714016,5.28846153846154,1.25770626050258,5.01923076923077,1.24444466889318,4.76923076923077,1.24641265025711
"53",1,"low_entitlement","Can you help with the larger items? I know that they are heavy and I can't lift them alone. ",36460,"","survey-text",7,239353,"0.0-7.0",6531,"group2","",918839,"{""Q0"":""Can you help with the larger items? I know that they are heavy and I can't lift them alone. ""}","interaction","M",1,NA,"",1,0,1,0,"Reason","Male",45,"","","","","",NA,NA,NA,"","low",101,"interaction",1,0,"M","M","no","yes",NA,"interaction",4.03846153846154,1.78184238714016,5.28846153846154,1.25770626050258,5.01923076923077,1.24444466889318,4.76923076923077,1.24641265025711
"54",1,"low_entitlement","Please help me to arranging things?",62398,"","survey-text",2,135414,"0.0-2.0",53762,"group2","",7317,"{""Q0"":""Please help me to arranging things?""}","interaction","D",NA,NA,"Bad English",0,0,0,0,"None","Male",32,"","","","","",NA,NA,NA,"","low",44,"interaction",0,0,"D","D","no","no",NA,"interaction",4.03846153846154,1.78184238714016,5.28846153846154,1.25770626050258,5.01923076923077,1.24444466889318,4.76923076923077,1.24641265025711
"55",1,"low_entitlement","can you help me out?",283774,"","survey-text",3,343139,"0.0-3.0",45629,"group2","",521137,"{""Q0"":""can you help me out?""}","interaction","M",NA,NA,"",0,0,0,0,"None","Male",27,"M","0","0","","M",0,0,0,"","low",29,"interaction",0,0,"M","M","no","no",NA,"interaction",4.03846153846154,1.78184238714016,5.28846153846154,1.25770626050258,5.01923076923077,1.24444466889318,4.76923076923077,1.24641265025711
"56",1,"low_entitlement","Can you help me move some furniture? I promise I'll make it up to you.",19142,"","survey-text",9,225645,"0.0-9.0",45152,"group2","",795750,"{""Q0"":""Can you help me move some furniture? I promise I'll make it up to you.""}","interaction","M",1,NA,"Promise repayment",1,0,0,1,"Repay","Male",31,"","","","","",NA,NA,NA,"","low",79,"interaction",1,0,"M","M","no","yes",NA,"interaction",4.03846153846154,1.78184238714016,5.28846153846154,1.25770626050258,5.01923076923077,1.24444466889318,4.76923076923077,1.24641265025711
"57",1,"low_entitlement","Hey any chance you could me me with the move, I'd owe you one.",77256,"","survey-text",6,386242,"0.0-6.0",91125,"group2","",881746,"{""Q0"":""Hey any chance you could me me with the move, I'd owe you one.""}","interaction","EM",1,NA,"",1,0,0,1,"Repay","Male",31,"","","","","",NA,NA,NA,"","low",71,"interaction",1,0,"EM","EM","no","yes",NA,"interaction",4.03846153846154,1.78184238714016,5.28846153846154,1.25770626050258,5.01923076923077,1.24444466889318,4.76923076923077,1.24641265025711
"58",1,"low_entitlement","Do you know anyone who could help me move? I need some brawn.",19055,"","survey-text",6,584689,"0.0-6.0",63311,"group2","A3GZYWA9S6J0K9",92642,"{""Q0"":""Do you know anyone who could help me move? I need some brawn.""}","interaction","EM",1,NA,"",1,0,1,0,"Reason","Female",44,"","","","","",NA,NA,NA,"","low",70,"interaction",1,0,"EM","EM","no","yes",NA,"interaction",4.03846153846154,1.78184238714016,5.28846153846154,1.25770626050258,5.01923076923077,1.24444466889318,4.76923076923077,1.24641265025711
"59",1,"low_entitlement","When would you be able to help move in the furniture? ",108863,"","survey-text",8,458521,"0.0-8.0",41767,"group2","",106248,"{""Q0"":""When would you be able to help move in the furniture? ""}","interaction","M",NA,NA,"Pretty indirect",0,0,0,0,"None","Female",28,"","","","","",NA,NA,NA,"","low",63,"interaction",0,0,"M","M","no","no",NA,"interaction",4.03846153846154,1.78184238714016,5.28846153846154,1.25770626050258,5.01923076923077,1.24444466889318,4.76923076923077,1.24641265025711
"60",1,"low_entitlement","Hey you have been a great help but could I ask you for one more favor? I could really use the help to move all of my furniture. Really appreciate it.",65102,"","survey-text",5,229300,"0.0-5.0",79560,"group2","",235145,"{""Q0"":""Hey you have been a great help but could I ask you for one more favor? I could really use the help to move all of my furniture. Really appreciate it.""}","interaction","M",1,NA,"",1,0,1,0,"Reason","Male",37,"","","","","",NA,NA,NA,"","low",158,"interaction",1,0,"M","M","no","yes",NA,"interaction",4.03846153846154,1.78184238714016,5.28846153846154,1.25770626050258,5.01923076923077,1.24444466889318,4.76923076923077,1.24641265025711
"61",1,"low_entitlement","Do you mind helping me move some of the furniture?",22124,"","survey-text",4,98096,"0.0-4.0",29295,"group2","",625322,"{""Q0"":""Do you mind helping me move some of the furniture?""}","interaction","EM",NA,NA,"",0,0,0,0,"None","Male",30,"","","","","",NA,NA,NA,"","low",59,"interaction",0,0,"EM","EM","no","no",NA,"interaction",4.03846153846154,1.78184238714016,5.28846153846154,1.25770626050258,5.01923076923077,1.24444466889318,4.76923076923077,1.24641265025711
"62",1,"low_entitlement","Do you mind helping me move my stuff? I can pay you.",25348,"","survey-text",8,309540,"0.0-8.0",38517,"group2","",47847,"{""Q0"":""Do you mind helping me move my stuff? I can pay you.""}","interaction","EM",1,NA,"",1,0,0,1,"Repay","Female",23,"","","","","",NA,NA,NA,"","low",61,"interaction",1,0,"EM","EM","no","yes",NA,"interaction",4.03846153846154,1.78184238714016,5.28846153846154,1.25770626050258,5.01923076923077,1.24444466889318,4.76923076923077,1.24641265025711
"63",1,"low_entitlement","Hey man I need a bit of help moving my furniture so we have it to use around the apartment.",74598,"","survey-text",7,449203,"0.0-7.0",11882,"group2","A3PN17H3QT51O",754892,"{""Q0"":""Hey man I need a bit of help moving my furniture so we have it to use around the apartment.""}","interaction","D",1,NA,"""I need""",1,0,1,0,"Reason","Male",36,"M","1","0","","IS",1,0,0,"","low",100,"interaction",1,0,"D","D","no","yes",NA,"interaction",4.03846153846154,1.78184238714016,5.28846153846154,1.25770626050258,5.01923076923077,1.24444466889318,4.76923076923077,1.24641265025711
"64",1,"low_entitlement","Will you help me move?",17964,"","survey-text",5,193939,"0.0-5.0",78146,"group2","",389128,"{""Q0"":""Will you help me move?""}","interaction","M",NA,NA,"",0,0,0,0,"None","Male",34,"","","","","",NA,NA,NA,"","low",31,"interaction",0,0,"M","M","no","no",NA,"interaction",4.03846153846154,1.78184238714016,5.28846153846154,1.25770626050258,5.01923076923077,1.24444466889318,4.76923076923077,1.24641265025711
"65",1,"low_entitlement","Hey, I know you've done a lot already with the move, but I could really use some help moving my furniture. I'll take you out to dinner after.",71558,"","survey-text",8,325521,"0.0-8.0",56340,"group2","",774203,"{""Q0"":""Hey, I know you've done a lot already with the move, but I could really use some help moving my furniture. I'll take you out to dinner after.""}","interaction","EM",1,NA,"",1,0,1,1,"Both","Female",27,"IS","1","0","","IS",1,1,1,"","low",150,"interaction",1,0,"EM","EM","no","yes",NA,"interaction",4.03846153846154,1.78184238714016,5.28846153846154,1.25770626050258,5.01923076923077,1.24444466889318,4.76923076923077,1.24641265025711
"66",1,"low_entitlement","Would you mind helping me on this",9965,"","survey-text",4,58238,"0.0-4.0",41393,"group2","A2P065E9CYMYJL",939765,"{""Q0"":""Would you mind helping me on this""}","interaction","EM",NA,NA,"",0,0,0,0,"None","Male",30,"","","","","",NA,NA,NA,"","low",42,"interaction",0,0,"EM","EM","no","no",NA,"interaction",4.03846153846154,1.78184238714016,5.28846153846154,1.25770626050258,5.01923076923077,1.24444466889318,4.76923076923077,1.24641265025711
"67",1,"low_entitlement","hey dude, I hope you ate your wheaties, I need to move my stuff and it's really back breaking. can you help?",59215,"","survey-text",5,188306,"0.0-5.0",54974,"group2","",72914,"{""Q0"":""hey dude, I hope you ate your wheaties, I need to move my stuff and it's really back breaking. can you help?""}","interaction","M",1,NA,"",1,0,1,0,"Reason","Female",50,"M","1","0","","M",1,0,0,"","low",117,"interaction",1,0,"M","M","no","yes",NA,"interaction",4.03846153846154,1.78184238714016,5.28846153846154,1.25770626050258,5.01923076923077,1.24444466889318,4.76923076923077,1.24641265025711
"68",1,"low_entitlement","Would you mind helping me move some of my stuff? I know you have done so much, but I dont really have anyone else I can ask. ",47695,"","survey-text",8,1248162,"0.0-8.0",2749,"group2","",881184,"{""Q0"":""Would you mind helping me move some of my stuff? I know you have done so much, but I dont really have anyone else I can ask. ""}","interaction","EM",1,NA,"",1,0,1,0,"Reason","Female",28,"EM","1","0","This is really close to being a referencing contingency (I know you have done so much) but it doesn't actually give the option of not completing the action (it's fine if you don't)","EM",1,0,1,"","low",134,"interaction",1,0,"EM","EM","no","yes",NA,"interaction",4.03846153846154,1.78184238714016,5.28846153846154,1.25770626050258,5.01923076923077,1.24444466889318,4.76923076923077,1.24641265025711
"69",1,"low_entitlement","It would be super awesome if you could keep up your great work and help me move my furniture into my new apartment. It is so heavy for just me to carry by myself.",47548,"","survey-text",3,110831,"0.0-3.0",36443,"group2","",577183,"{""Q0"":""It would be super awesome if you could keep up your great work and help me move my furniture into my new apartment. It is so heavy for just me to carry by myself.""}","interaction","EM",1,NA,"",1,0,1,0,"Reason","Female",29,"","","","","",NA,NA,NA,"","low",171,"interaction",1,0,"EM","EM","no","yes",NA,"interaction",4.03846153846154,1.78184238714016,5.28846153846154,1.25770626050258,5.01923076923077,1.24444466889318,4.76923076923077,1.24641265025711
"70",1,"low_entitlement","Hey, I know you've done a lot already but can you help me move some of my stuff in?",32329,"","survey-text",4,147049,"0.0-4.0",63191,"group2","",553371,"{""Q0"":""Hey, I know you've done a lot already but can you help me move some of my stuff in?""}","interaction","M",1,NA,"",1,0,1,0,"Reason","Male",36,"","","","","",NA,NA,NA,"","low",92,"interaction",1,0,"M","M","no","yes",NA,"interaction",4.03846153846154,1.78184238714016,5.28846153846154,1.25770626050258,5.01923076923077,1.24444466889318,4.76923076923077,1.24641265025711
"71",1,"low_entitlement","Would you mind helping me move to a new apartment? You've been a wonderful friend and I really appreciate.",35991,"","survey-text",4,119085,"0.0-4.0",41552,"group2","",857091,"{""Q0"":""Would you mind helping me move to a new apartment? You've been a wonderful friend and I really appreciate.""}","interaction","EM",1,NA,"",1,0,1,0,"Reason","Female",27,"EM","0","0","","EM",0,0,0,"","low",115,"interaction",1,0,"EM","EM","no","yes",1,"interaction",4.03846153846154,1.78184238714016,5.28846153846154,1.25770626050258,5.01923076923077,1.24444466889318,4.76923076923077,1.24641265025711
"72",2,"high_entitlement","I hate to ask, but I am short on money right now and was wondering if you would cover my half of the rent. I will get you back as soon as I get paid. ",49483,"","survey-text",9,1298650,"0.0-9.0",2749,"group2","",881184,"{""Q0"":""I hate to ask, but I am short on money right now and was wondering if you would cover my half of the rent. I will get you back as soon as I get paid. ""}","interaction","EM",1,NA,"",1,0,1,1,"Both","Female",28,"EM","1","0","","EM",1,1,1,"","high",159,"interaction",1,0,"EM","EM","no","yes",NA,"interaction",5.62264150943396,1.9137801406393,4.83018867924528,1.55335677531205,4.79245283018868,1.63328939644507,5.20754716981132,1.24589310823814
"73",2,"high_entitlement","Can you help this month?",12409,"","survey-text",8,249252,"0.0-8.0",78146,"group2","",389128,"{""Q0"":""Can you help this month?""}","interaction","M",NA,NA,"",0,0,0,0,"None","Male",34,"","","","","",NA,NA,NA,"","high",33,"interaction",0,0,"M","M","no","no",NA,"interaction",5.62264150943396,1.9137801406393,4.83018867924528,1.55335677531205,4.79245283018868,1.63328939644507,5.20754716981132,1.24589310823814
"74",2,"high_entitlement","Hey, I hate to ask but would you be able to lend me some money for the rent this month?",44441,"","survey-text",9,370973,"0.0-9.0",56340,"group2","",774203,"{""Q0"":""Hey, I hate to ask but would you be able to lend me some money for the rent this month?""}","interaction","EM",NA,NA,"",0,0,0,0,"None","Female",27,"EM","0","0","Does this count as a referencing contingency? ","EM",1,0,1,"","high",96,"interaction",0,0,"EM","EM","no","no",0,"interaction",5.62264150943396,1.9137801406393,4.83018867924528,1.55335677531205,4.79245283018868,1.63328939644507,5.20754716981132,1.24589310823814
"75",2,"high_entitlement","I need you to cover it this month. ",38905,"","survey-text",7,123725,"0.0-7.0",41393,"group2","A2P065E9CYMYJL",939765,"{""Q0"":""I need you to cover it this month. ""}","interaction","D",NA,NA,"",0,0,0,0,"None","Male",30,"","","","","",NA,NA,NA,"","high",44,"interaction",0,0,"D","D","no","no",NA,"interaction",5.62264150943396,1.9137801406393,4.83018867924528,1.55335677531205,4.79245283018868,1.63328939644507,5.20754716981132,1.24589310823814
"76",2,"high_entitlement","Can you help me out with this month's rent?",28517,"","survey-text",8,415250,"0.0-8.0",93211,"group2","",961202,"{""Q0"":""Can you help me out with this month's rent?""}","interaction","M",NA,NA,"",0,0,0,0,"None","Male",25,"M","0","0","","M",0,0,0,"","high",52,"interaction",0,0,"M","M","no","no",NA,"interaction",5.62264150943396,1.9137801406393,4.83018867924528,1.55335677531205,4.79245283018868,1.63328939644507,5.20754716981132,1.24589310823814
"77",2,"high_entitlement","I really hate to do this to you, but I'm short this month, the hours at work haven't been grand...can you please cover me this month?",15884,"","survey-text",6,141530,"0.0-6.0",10094,"group2","",126501,"{""Q0"":""I really hate to do this to you, but I'm short this month, the hours at work haven't been grand...can you please cover me this month?""}","interaction","M",1,NA,"",1,0,1,0,"Reason","Male",30,"","","","","",NA,NA,NA,"","high",142,"interaction",1,0,"M","M","no","yes",NA,"interaction",5.62264150943396,1.9137801406393,4.83018867924528,1.55335677531205,4.79245283018868,1.63328939644507,5.20754716981132,1.24589310823814
"78",2,"high_entitlement","could you front me my half of the rent?",30505,"","survey-text",2,58362,"0.0-2.0",45629,"group2","",521137,"{""Q0"":""could you front me my half of the rent?""}","interaction","M",NA,NA,"",0,0,0,0,"None","Male",27,"M","0","0","","M",0,0,0,"","high",48,"interaction",0,0,"M","M","no","no",NA,"interaction",5.62264150943396,1.9137801406393,4.83018867924528,1.55335677531205,4.79245283018868,1.63328939644507,5.20754716981132,1.24589310823814
"79",2,"high_entitlement","Hey man I need you to cover rent for me, please. ",17119,"","survey-text",6,170940,"0.0-6.0",51743,"group2","",701805,"{""Q0"":""Hey man I need you to cover rent for me, please. ""}","interaction","D",NA,NA,"",0,0,0,0,"None","Male",28,"","","","","",NA,NA,NA,"","high",58,"interaction",0,0,"D","D","no","no",NA,"interaction",5.62264150943396,1.9137801406393,4.83018867924528,1.55335677531205,4.79245283018868,1.63328939644507,5.20754716981132,1.24589310823814
"80",2,"high_entitlement","Hey, I need to call in a favor -- I'm short on cash and can't make the rent. Can you spot me?",56644,"","survey-text",9,436737,"0.0-9.0",58100,"group2","",374055,"{""Q0"":""Hey, I need to call in a favor -- I'm short on cash and can't make the rent. Can you spot me?""}","interaction","M",1,NA,"",1,0,1,0,"Reason","Female",38,"","","","","",NA,NA,NA,"","high",102,"interaction",1,0,"M","M","no","yes",NA,"interaction",5.62264150943396,1.9137801406393,4.83018867924528,1.55335677531205,4.79245283018868,1.63328939644507,5.20754716981132,1.24589310823814
"81",2,"high_entitlement","can you help me to pay rent? ",45187,"","survey-text",5,264382,"0.0-5.0",53762,"group2","",7317,"{""Q0"":""can you help me to pay rent? ""}","interaction","M",NA,NA,"Bad English",0,0,0,0,"None","Male",32,"","","","","",NA,NA,NA,"","high",38,"interaction",0,0,"M","M","no","no",NA,"interaction",5.62264150943396,1.9137801406393,4.83018867924528,1.55335677531205,4.79245283018868,1.63328939644507,5.20754716981132,1.24589310823814
"82",2,"high_entitlement","Hey, do you think you might be able to spot me for the rent?",20553,"","survey-text",8,220197,"0.0-8.0",64740,"group2","",802490,"{""Q0"":""Hey, do you think you might be able to spot me for the rent?""}","interaction","M",NA,NA,"",0,0,0,0,"None","Female",29,"","","","","",NA,NA,NA,"","high",69,"interaction",0,0,"M","M","no","no",NA,"interaction",5.62264150943396,1.9137801406393,4.83018867924528,1.55335677531205,4.79245283018868,1.63328939644507,5.20754716981132,1.24589310823814
"83",2,"high_entitlement","Hey, I'm a little short, so can you cover me this month?",26788,"","survey-text",7,225555,"0.0-7.0",24940,"group2","",926051,"{""Q0"":""Hey, I'm a little short, so can you cover me this month?""}","interaction","M",1,NA,"",1,0,1,0,"Reason","Male",49,"","","","","",NA,NA,NA,"","high",65,"interaction",1,0,"M","M","no","yes",NA,"interaction",5.62264150943396,1.9137801406393,4.83018867924528,1.55335677531205,4.79245283018868,1.63328939644507,5.20754716981132,1.24589310823814
"84",2,"high_entitlement","Hey, could you help me out this one time? I don't have the money on me right now and I'll gladly help you again in the future if needed.",24398,"","survey-text",2,87074,"0.0-2.0",11600,"group2","",712735,"{""Q0"":""Hey, could you help me out this one time? I don't have the money on me right now and I'll gladly help you again in the future if needed.""}","interaction","M",1,NA,"",1,0,0,1,"Repay","Male",23,"M","1","0","","M",1,1,0,"","high",145,"interaction",1,0,"M","M","no","yes",0,"interaction",5.62264150943396,1.9137801406393,4.83018867924528,1.55335677531205,4.79245283018868,1.63328939644507,5.20754716981132,1.24589310823814
"85",2,"high_entitlement","Hey, I'm short on rent this month. Can you help me out?",21531,"","survey-text",2,82238,"0.0-2.0",6531,"group2","",918839,"{""Q0"":""Hey, I'm short on rent this month. Can you help me out?""}","interaction","M",1,NA,"",1,0,1,0,"Reason","Male",45,"","","","","",NA,NA,NA,"","high",64,"interaction",1,0,"M","M","no","yes",NA,"interaction",5.62264150943396,1.9137801406393,4.83018867924528,1.55335677531205,4.79245283018868,1.63328939644507,5.20754716981132,1.24589310823814
"86",2,"high_entitlement","Hey, would you mind covering for me until I get paid?",22476,"","survey-text",7,188261,"0.0-7.0",22753,"group2","A1BH6H9WRK49I",15719,"{""Q0"":""Hey, would you mind covering for me until I get paid?""}","interaction","EM",NA,NA,"",0,0,0,0,"None","Female",24,"","","","","",NA,NA,NA,"","high",62,"interaction",0,0,"EM","EM","no","no",NA,"interaction",5.62264150943396,1.9137801406393,4.83018867924528,1.55335677531205,4.79245283018868,1.63328939644507,5.20754716981132,1.24589310823814
"87",2,"high_entitlement","I'm a little short on the rent this month, can you help me out?",33924,"","survey-text",6,185368,"0.0-6.0",62946,"group2","",336117,"{""Q0"":""I'm a little short on the rent this month, can you help me out?""}","interaction","M",1,NA,"",1,0,1,0,"Reason","Male",37,"","","","","",NA,NA,NA,"","high",72,"interaction",1,0,"M","M","no","yes",NA,"interaction",5.62264150943396,1.9137801406393,4.83018867924528,1.55335677531205,4.79245283018868,1.63328939644507,5.20754716981132,1.24589310823814
"88",2,"high_entitlement","Hey Kelsey, is there any chance you could cover my rent this month like I covered yours last time? Thank you I really appreciate it ",55090,"","survey-text",7,348651,"0.0-7.0",41767,"group2","",106248,"{""Q0"":""Hey Kelsey, is there any chance you could cover my rent this month like I covered yours last time? Thank you I really appreciate it ""}","interaction","EM",1,NA,"",1,0,0,1,"Repay","Female",28,"","","","","",NA,NA,NA,"","high",141,"interaction",1,0,"EM","EM","no","yes",NA,"interaction",5.62264150943396,1.9137801406393,4.83018867924528,1.55335677531205,4.79245283018868,1.63328939644507,5.20754716981132,1.24589310823814
"89",2,"high_entitlement","I'm late on rent have no money right now. Could you lend me some?",37247,"","survey-text",8,608798,"0.0-8.0",94586,"group2","",107712,"{""Q0"":""I'm late on rent have no money right now. Could you lend me some?""}","interaction","M",1,NA,"",1,0,1,0,"Reason","Male",27,"","","","","",NA,NA,NA,"","high",74,"interaction",1,0,"M","M","no","yes",NA,"interaction",5.62264150943396,1.9137801406393,4.83018867924528,1.55335677531205,4.79245283018868,1.63328939644507,5.20754716981132,1.24589310823814
"90",2,"high_entitlement","Would you be able to help me cover rent this month?",17362,"","survey-text",9,277282,"0.0-9.0",63191,"group2","",553371,"{""Q0"":""Would you be able to help me cover rent this month?""}","interaction","EM",NA,NA,"",0,0,0,0,"None","Male",36,"","","","","",NA,NA,NA,"","high",60,"interaction",0,0,"EM","EM","no","no",NA,"interaction",5.62264150943396,1.9137801406393,4.83018867924528,1.55335677531205,4.79245283018868,1.63328939644507,5.20754716981132,1.24589310823814
"91",2,"high_entitlement","Dude I'm going to need you to help cover my share of the rent this month it's only fair considering Ive covered your share in the past.",56456,"","survey-text",4,266737,"0.0-4.0",11882,"group2","A3PN17H3QT51O",754892,"{""Q0"":""Dude I'm going to need you to help cover my share of the rent this month it's only fair considering Ive covered your share in the past.""}","interaction","D",1,NA,"Justification",1,0,0,1,"Repay","Male",36,"D","1","0","","D",1,0,0,"","high",144,"interaction",1,0,"D","D","no","yes",1,"interaction",5.62264150943396,1.9137801406393,4.83018867924528,1.55335677531205,4.79245283018868,1.63328939644507,5.20754716981132,1.24589310823814
"92",2,"high_entitlement","It seems I'm low on the cash this month, mind covering for me?",23126,"","survey-text",3,100076,"0.0-3.0",87042,"group2","",983620,"{""Q0"":""It seems I'm low on the cash this month, mind covering for me?""}","interaction","M",1,NA,"",1,0,1,0,"Reason","Male",29,"","","","","",NA,NA,NA,"","high",71,"interaction",1,0,"M","M","no","yes",NA,"interaction",5.62264150943396,1.9137801406393,4.83018867924528,1.55335677531205,4.79245283018868,1.63328939644507,5.20754716981132,1.24589310823814
"93",2,"high_entitlement","Dude. I am in trouble. Would it be possible to borrow X amount just this one time? Ill get it back to you ASAP.",29205,"","survey-text",3,59152,"0.0-3.0",6328,"group2","",434577,"{""Q0"":""Dude. I am in trouble. Would it be possible to borrow X amount just this one time? Ill get it back to you ASAP.""}","interaction","EM",1,NA,"",1,0,1,1,"Both","Female",25,"","","","","",NA,NA,NA,"","high",120,"interaction",1,0,"EM","EM","no","yes",NA,"interaction",5.62264150943396,1.9137801406393,4.83018867924528,1.55335677531205,4.79245283018868,1.63328939644507,5.20754716981132,1.24589310823814
"94",2,"high_entitlement","Guys I am having money trouble for this month. Do you think you can spot me this time?",31993,"","survey-text",6,262295,"0.0-6.0",79560,"group2","",235145,"{""Q0"":""Guys I am having money trouble for this month. Do you think you can spot me this time?""}","interaction","EM",1,NA,"",1,0,1,0,"Reason","Male",37,"","","","","",NA,NA,NA,"","high",95,"interaction",1,0,"EM","EM","no","yes",NA,"interaction",5.62264150943396,1.9137801406393,4.83018867924528,1.55335677531205,4.79245283018868,1.63328939644507,5.20754716981132,1.24589310823814
"95",2,"high_entitlement","Hey could you spot me for my share of the rent this month?",26632,"","survey-text",9,514704,"0.0-9.0",91125,"group2","",881746,"{""Q0"":""Hey could you spot me for my share of the rent this month?""}","interaction","M",NA,NA,"",0,0,0,0,"None","Male",31,"","","","","",NA,NA,NA,"","high",67,"interaction",0,0,"M","M","no","no",NA,"interaction",5.62264150943396,1.9137801406393,4.83018867924528,1.55335677531205,4.79245283018868,1.63328939644507,5.20754716981132,1.24589310823814
"96",2,"high_entitlement","Hey man, any chance you can spot me the rent this month? I'm short.",25049,"","survey-text",2,56464,"0.0-2.0",93949,"group2","",391329,"{""Q0"":""Hey man, any chance you can spot me the rent this month? I'm short.""}","interaction","M",1,NA,"",1,0,1,0,"Reason","Female",25,"EM","1","0","","EM",1,0,0,"","high",76,"interaction",1,0,"M","M","no","yes",NA,"interaction",5.62264150943396,1.9137801406393,4.83018867924528,1.55335677531205,4.79245283018868,1.63328939644507,5.20754716981132,1.24589310823814
"97",2,"high_entitlement","I'm having trouble paying rent for this month. Do you think, you can help me, like I have helped you in the past?",34531,"","survey-text",7,258493,"0.0-7.0",66118,"group2","A1153ZIEQX0ZJ8",428165,"{""Q0"":""I'm having trouble paying rent for this month. Do you think, you can help me, like I have helped you in the past?""}","interaction","EM",1,NA,"",1,0,1,1,"Both","Male",27,"EM","1","0","","EM",1,0,0,"","high",122,"interaction",1,0,"EM","EM","no","yes",NA,"interaction",5.62264150943396,1.9137801406393,4.83018867924528,1.55335677531205,4.79245283018868,1.63328939644507,5.20754716981132,1.24589310823814
"98",2,"high_entitlement","hi, it is time to pay the rent but I am sorry to say that I don't have enough for my share this time so I was wondering if you cloud cover my share of the rent this time. ",100418,"","survey-text",2,128475,"0.0-2.0",10233,"group2","",128454,"{""Q0"":""hi, it is time to pay the rent but I am sorry to say that I don't have enough for my share this time so I was wondering if you cloud cover my share of the rent this time. ""}","interaction","EM",1,NA,"",1,0,1,0,"Reason","Male",34,"EM","1","0","","EM",1,0,1,"","high",180,"interaction",1,0,"EM","EM","no","yes",NA,"interaction",5.62264150943396,1.9137801406393,4.83018867924528,1.55335677531205,4.79245283018868,1.63328939644507,5.20754716981132,1.24589310823814
"99",2,"high_entitlement","Do you mind covering my rent since I can't this month?",29500,"","survey-text",6,252103,"0.0-6.0",38517,"group2","",47847,"{""Q0"":""Do you mind covering my rent since I can't this month?""}","interaction","EM",NA,NA,"",0,0,0,0,"None","Female",23,"","","","","",NA,NA,NA,"","high",63,"interaction",0,0,"EM","EM","no","no",NA,"interaction",5.62264150943396,1.9137801406393,4.83018867924528,1.55335677531205,4.79245283018868,1.63328939644507,5.20754716981132,1.24589310823814
"100",2,"high_entitlement","""Hey, are you able to help me out with rent this month?""",28034,"","survey-text",8,213748,"0.0-8.0",77780,"group2","A1KH1O9AZ7S642",962311,"{""Q0"":""\""Hey, are you able to help me out with rent this month?\""""}","interaction","M",NA,NA,"",0,0,0,0,"None","Male",24,"","","","","",NA,NA,NA,"","high",67,"interaction",0,0,"M","M","no","no",NA,"interaction",5.62264150943396,1.9137801406393,4.83018867924528,1.55335677531205,4.79245283018868,1.63328939644507,5.20754716981132,1.24589310823814
"101",2,"high_entitlement","Can you cover me this month until I can pay your back?",19133,"","survey-text",5,118235,"0.0-5.0",29295,"group2","",625322,"{""Q0"":""Can you cover me this month until I can pay your back?""}","interaction","M",NA,NA,"",0,0,0,0,"None","Male",30,"","","","","",NA,NA,NA,"","high",63,"interaction",0,0,"M","M","no","no",NA,"interaction",5.62264150943396,1.9137801406393,4.83018867924528,1.55335677531205,4.79245283018868,1.63328939644507,5.20754716981132,1.24589310823814
"102",2,"high_entitlement","Hey, do you think you could help me out with my half of the rent this month? I'll pay you back as soon as I can. I'm tight on cash right now.",38257,"","survey-text",2,82136,"0.0-2.0",19648,"group2","",676715,"{""Q0"":""Hey, do you think you could help me out with my half of the rent this month? I'll pay you back as soon as I can. I'm tight on cash right now.""}","interaction","EM",1,NA,"",1,0,1,1,"Both","Female",29,"","","","","",NA,NA,NA,"","high",150,"interaction",1,0,"EM","EM","no","yes",NA,"interaction",5.62264150943396,1.9137801406393,4.83018867924528,1.55335677531205,4.79245283018868,1.63328939644507,5.20754716981132,1.24589310823814
"103",2,"high_entitlement","Hey, could I borrow some money for rent this month? I'll pay you back with interest.",20246,"","survey-text",9,222132,"0.0-9.0",11845,"group2","",439184,"{""Q0"":""Hey, could I borrow some money for rent this month? I'll pay you back with interest.""}","interaction","M",1,NA,"",1,0,0,1,"Repay","Male",30,"","","","","",NA,NA,NA,"","high",93,"interaction",1,0,"M","M","no","yes",NA,"interaction",5.62264150943396,1.9137801406393,4.83018867924528,1.55335677531205,4.79245283018868,1.63328939644507,5.20754716981132,1.24589310823814
"104",2,"high_entitlement","Can you loan me some money for rent that I can pay you back soon? ",31524,"","survey-text",2,60928,"0.0-2.0",41552,"group2","",857091,"{""Q0"":""Can you loan me some money for rent that I can pay you back soon? ""}","interaction","M",1,NA,"",1,0,0,1,"Repay","Female",27,"M","0","0","","M",1,1,0,"","high",75,"interaction",1,0,"M","M","no","yes",NA,"interaction",5.62264150943396,1.9137801406393,4.83018867924528,1.55335677531205,4.79245283018868,1.63328939644507,5.20754716981132,1.24589310823814
"105",2,"high_entitlement","hey roommee the rent's on you the next 6 months. ",41294,"","survey-text",3,97457,"0.0-3.0",54974,"group2","",72914,"{""Q0"":""hey roommee the rent's on you the next 6 months. ""}","interaction","D",NA,NA,"",0,0,0,0,"None","Female",50,"O","0","0","I'd most closely code this as Direct, but it's not a request or an imperative, it's phrased as a statement of fact","IS",0,0,0,"COULD BE OTHER","high",58,"interaction",0,0,"D","D","no","no",NA,"interaction",5.62264150943396,1.9137801406393,4.83018867924528,1.55335677531205,4.79245283018868,1.63328939644507,5.20754716981132,1.24589310823814
"106",2,"high_entitlement","Can you help me out with rent like you said you would?",19180,"","survey-text",3,536833,"0.0-3.0",63311,"group2","A3GZYWA9S6J0K9",92642,"{""Q0"":""Can you help me out with rent like you said you would?""}","interaction","M",1,NA,"""like you said you would""",1,0,1,0,"Reason","Female",44,"","","","","",NA,NA,NA,"","high",63,"interaction",1,0,"M","M","no","yes",NA,"interaction",5.62264150943396,1.9137801406393,4.83018867924528,1.55335677531205,4.79245283018868,1.63328939644507,5.20754716981132,1.24589310823814
"107",2,"high_entitlement","Can I borrow some cash for rent.",9821,"","survey-text",6,81351,"0.0-6.0",23266,"group2","",219492,"{""Q0"":""Can I borrow some cash for rent.""}","interaction","M",NA,NA,"",0,0,0,0,"None","Female",33,"","","","","",NA,NA,NA,"","high",41,"interaction",0,0,"M","M","no","no",NA,"interaction",5.62264150943396,1.9137801406393,4.83018867924528,1.55335677531205,4.79245283018868,1.63328939644507,5.20754716981132,1.24589310823814
"108",2,"high_entitlement","Hey Man. I'm short on cash this month and it's going to be difficult to cover my rent. Could you possibly help cover my share this month?",39323,"","survey-text",3,124713,"0.0-3.0",99586,"group2","",650908,"{""Q0"":""Hey Man. I'm short on cash this month and it's going to be difficult to cover my rent. Could you possibly help cover my share this month?""}","interaction","M",1,NA,"",1,0,1,0,"Reason","Male",39,"","","","","",NA,NA,NA,"","high",146,"interaction",1,0,"M","M","no","yes",NA,"interaction",5.62264150943396,1.9137801406393,4.83018867924528,1.55335677531205,4.79245283018868,1.63328939644507,5.20754716981132,1.24589310823814
"109",2,"high_entitlement","Hey, it's been a bad month for once. Can you cover me this one time. Thank you.",32821,"","survey-text",4,193557,"0.0-4.0",61228,"group2","",195884,"{""Q0"":""Hey, it's been a bad month for once. Can you cover me this one time. Thank you.""}","interaction","M",1,NA,"",1,0,1,0,"Reason","Male",27,"","","","","",NA,NA,NA,"","high",88,"interaction",1,0,"M","M","no","yes",NA,"interaction",5.62264150943396,1.9137801406393,4.83018867924528,1.55335677531205,4.79245283018868,1.63328939644507,5.20754716981132,1.24589310823814
"110",2,"high_entitlement","Hey, could you help cover my part of the rent this month? I'll get you back next time. ",42862,"","survey-text",9,540761,"0.0-9.0",27819,"group2","",117980,"{""Q0"":""Hey, could you help cover my part of the rent this month? I'll get you back next time. ""}","interaction","M",1,NA,"Offers repayment (""next time"")",1,0,0,1,"Repay","Male",35,"M","1","0","","M",0,1,0,"","high",96,"interaction",1,0,"M","M","no","yes",NA,"interaction",5.62264150943396,1.9137801406393,4.83018867924528,1.55335677531205,4.79245283018868,1.63328939644507,5.20754716981132,1.24589310823814
"111",2,"high_entitlement","Hey I'm going to need you to cover the rent this month, I'm gonna be short a bit. ",38654,"","survey-text",7,272496,"0.0-7.0",58827,"group2","",829464,"{""Q0"":""Hey I'm going to need you to cover the rent this month, I'm gonna be short a bit. ""}","interaction","M",1,NA,"",1,0,1,0,"Reason","Male",30,"","","","","",NA,NA,NA,"","high",91,"interaction",1,0,"M","M","no","yes",NA,"interaction",5.62264150943396,1.9137801406393,4.83018867924528,1.55335677531205,4.79245283018868,1.63328939644507,5.20754716981132,1.24589310823814
"112",2,"high_entitlement","Can you hook me up on what I still owe on rent until I get paid next week? You owe me!",23989,"","survey-text",9,324310,"0.0-9.0",36443,"group2","",577183,"{""Q0"":""Can you hook me up on what I still owe on rent until I get paid next week? You owe me!""}","interaction","M",1,NA,"Justifies (""You owe me"")",1,0,1,1,"Both","Female",29,"","","","","",NA,NA,NA,"","high",95,"interaction",1,0,"M","M","no","yes",NA,"interaction",5.62264150943396,1.9137801406393,4.83018867924528,1.55335677531205,4.79245283018868,1.63328939644507,5.20754716981132,1.24589310823814
"113",2,"high_entitlement","I don't have enough money to cover my part of the rent. Can you please help",33716,"","survey-text",8,317800,"0.0-8.0",17154,"group2","",778898,"{""Q0"":""I don't have enough money to cover my part of the rent. Can you please help""}","interaction","M",1,NA,"",1,0,1,0,"Reason","Female",29,"","","","","",NA,NA,NA,"","high",84,"interaction",1,0,"M","M","no","yes",NA,"interaction",5.62264150943396,1.9137801406393,4.83018867924528,1.55335677531205,4.79245283018868,1.63328939644507,5.20754716981132,1.24589310823814
"114",2,"high_entitlement","Can you spot me for the amount that I don't have this month?",13603,"","survey-text",4,117131,"0.0-4.0",45152,"group2","",795750,"{""Q0"":""Can you spot me for the amount that I don't have this month?""}","interaction","M",NA,NA,"",0,0,0,0,"None","Male",31,"","","","","",NA,NA,NA,"","high",69,"interaction",0,0,"M","M","no","no",NA,"interaction",5.62264150943396,1.9137801406393,4.83018867924528,1.55335677531205,4.79245283018868,1.63328939644507,5.20754716981132,1.24589310823814
"115",2,"low_entitlement","I know I've already borrowed quite a bit, but could you spot me a little bit more for rent?",37991,"","survey-text",7,220559,"0.0-7.0",86201,"group1","",732059,"{""Q0"":""I know I've already borrowed quite a bit, but could you spot me a little bit more for rent?""}","interaction","M",NA,1,"",0,1,0,0,"None","Male",33,"","","","","",NA,NA,NA,"","low",100,"interaction",0,1,"M","M","yes","no",NA,"interaction",3.0625,2.0254366484838,5.9375,1.06003311871184,5.60416666666667,1.42529703262361,4.70833333333333,1.27092416254879
"116",2,"low_entitlement","Hey I'd hate to ask again, but is there anyway you could spot me another loan? I'll pay you back as soon as I can.",170234,"","survey-text",9,421409,"0.0-9.0",43857,"group1","",516593,"{""Q0"":""Hey I'd hate to ask again, but is there anyway you could spot me another loan? I'll pay you back as soon as I can.""}","interaction","EM",1,NA,"",1,0,0,1,"Repay","Male",28,"EM","0","0","","EM",0,1,1,"","low",123,"interaction",1,0,"EM","EM","no","yes",NA,"interaction",3.0625,2.0254366484838,5.9375,1.06003311871184,5.60416666666667,1.42529703262361,4.70833333333333,1.27092416254879
"117",2,"low_entitlement","Hey, I'm sorry to be a bother, but I'm still short on cash. Can you help?",19170,"","survey-text",8,118360,"0.0-8.0",87835,"group1","",798603,"{""Q0"":""Hey, I'm sorry to be a bother, but I'm still short on cash. Can you help?""}","interaction","M",1,NA,"",1,0,1,0,"Reason","Male",46,"M","1","0","","M",1,0,1,"","low",82,"interaction",1,0,"M","M","no","yes",NA,"interaction",3.0625,2.0254366484838,5.9375,1.06003311871184,5.60416666666667,1.42529703262361,4.70833333333333,1.27092416254879
"118",2,"low_entitlement","""Would you be able to spot me a few hundred until my payday...the rent is due and I'll be kicked out otherwise""",27280,"","survey-text",6,126774,"0.0-6.0",15859,"group1","",78335,"{""Q0"":""\""Would you be able to spot me a few hundred until my payday...the rent is due and I'll be kicked out otherwise\""""}","interaction","EM",NA,NA,"",0,0,0,0,"None","Male",45,"EM","1","0","","EM",1,0,0,"","low",122,"interaction",0,0,"EM","EM","no","no",1,"interaction",3.0625,2.0254366484838,5.9375,1.06003311871184,5.60416666666667,1.42529703262361,4.70833333333333,1.27092416254879
"119",2,"low_entitlement","Hey I'm short this month on rent. Are you able to help me out? Please.",35902,"","survey-text",2,116744,"0.0-2.0",7730,"group1","",682846,"{""Q0"":""Hey I'm short this month on rent. Are you able to help me out? Please.""}","interaction","M",1,NA,"",1,0,1,0,"Reason","Male",34,"","","","","",NA,NA,NA,"","low",79,"interaction",1,0,"M","M","no","yes",NA,"interaction",3.0625,2.0254366484838,5.9375,1.06003311871184,5.60416666666667,1.42529703262361,4.70833333333333,1.27092416254879
"120",2,"low_entitlement","I know I suck, but can you give me some money for rent?",17975,"","survey-text",6,407538,"0.0-6.0",75040,"group1","",342904,"{""Q0"":""I know I suck, but can you give me some money for rent?""}","interaction","M",NA,1,"""I know I suck""",0,1,0,0,"None","Male",31,"","","","","",NA,NA,NA,"","low",64,"interaction",0,1,"M","M","yes","no",NA,"interaction",3.0625,2.0254366484838,5.9375,1.06003311871184,5.60416666666667,1.42529703262361,4.70833333333333,1.27092416254879
"121",2,"low_entitlement","I know I already owe you money, but I'm in jeopardy of becoming homeless.  Can you please help this one last time?",30715,"","survey-text",5,170320,"0.0-5.0",63745,"group1","",337297,"{""Q0"":""I know I already owe you money, but I'm in jeopardy of becoming homeless.  Can you please help this one last time?""}","interaction","M",1,NA,"",1,0,1,0,"Reason","Male",42,"","","","","",NA,NA,NA,"","low",123,"interaction",1,0,"M","M","no","yes",NA,"interaction",3.0625,2.0254366484838,5.9375,1.06003311871184,5.60416666666667,1.42529703262361,4.70833333333333,1.27092416254879
"122",2,"low_entitlement","Can you loan me some money?",7636,"","survey-text",7,80133,"0.0-7.0",72774,"group1","",581306,"{""Q0"":""Can you loan me some money?""}","interaction","M",NA,NA,"",0,0,0,0,"None","Male",30,"","","","","",NA,NA,NA,"","low",36,"interaction",0,0,"M","M","no","no",NA,"interaction",3.0625,2.0254366484838,5.9375,1.06003311871184,5.60416666666667,1.42529703262361,4.70833333333333,1.27092416254879
"123",2,"low_entitlement","I don't have enough to pay this month.",22158,"","survey-text",3,49418,"0.0-3.0",49422,"group1","A35TWG9VW1MB5S",347341,"{""Q0"":""I don't have enough to pay this month.""}","interaction","IS",NA,NA,"",0,0,0,0,"None","Female",69,"","","","","",NA,NA,NA,"","low",47,"interaction",0,0,"IS","IS","no","no",NA,"interaction",3.0625,2.0254366484838,5.9375,1.06003311871184,5.60416666666667,1.42529703262361,4.70833333333333,1.27092416254879
"124",2,"low_entitlement","I know I still owe you money, but could you please help me pay for my rent?",76084,"","survey-text",5,177239,"0.0-5.0",52885,"group1","",147191,"{""Q0"":""I know I still owe you money, but could you please help me pay for my rent?""}","interaction","M",1,NA,"",1,0,1,0,"Reason","Male",31,"","","","","",NA,NA,NA,"","low",84,"interaction",1,0,"M","M","no","yes",NA,"interaction",3.0625,2.0254366484838,5.9375,1.06003311871184,5.60416666666667,1.42529703262361,4.70833333333333,1.27092416254879
"125",2,"low_entitlement","Can you borrow me more cash, i really need to pay the rent",40602,"","survey-text",8,220273,"0.0-8.0",59507,"group1","",328856,"{""Q0"":""Can you borrow me more cash, i really need to pay the rent""}","interaction","M",NA,NA,"",0,0,0,0,"None","Male",33,"","","","","",NA,NA,NA,"","low",67,"interaction",0,0,"M","M","no","no",NA,"interaction",3.0625,2.0254366484838,5.9375,1.06003311871184,5.60416666666667,1.42529703262361,4.70833333333333,1.27092416254879
"126",2,"low_entitlement","I was wondering if I could borrow some money from you? I know I owe still, but the land lord is not going to let me pay late. ",170461,"","survey-text",2,209441,"0.0-2.0",39966,"group1","",72820,"{""Q0"":""I was wondering if I could borrow some money from you? I know I owe still, but the land lord is not going to let me pay late. ""}","interaction","EM",1,NA,"",1,0,1,0,"Reason","Female",35,"","","","","",NA,NA,NA,"","low",135,"interaction",1,0,"EM","EM","no","yes",NA,"interaction",3.0625,2.0254366484838,5.9375,1.06003311871184,5.60416666666667,1.42529703262361,4.70833333333333,1.27092416254879
"127",2,"low_entitlement","Look, I know I already owe you, but the Landlord is breathing down my neck. Could I get enough to cover me this month before I start paying you back?",51012,"","survey-text",5,239181,"0.0-5.0",23737,"group1","",197120,"{""Q0"":""Look, I know I already owe you, but the Landlord is breathing down my neck. Could I get enough to cover me this month before I start paying you back?""}","interaction","M",1,NA,"",1,0,1,1,"Both","Male",27,"M","1","0","","M",1,1,1,"","low",158,"interaction",1,0,"M","M","no","yes",NA,"interaction",3.0625,2.0254366484838,5.9375,1.06003311871184,5.60416666666667,1.42529703262361,4.70833333333333,1.27092416254879
"128",2,"low_entitlement","Can you help out with rent",7063,"","survey-text",8,108616,"0.0-8.0",6582,"group1","",277836,"{""Q0"":""Can you help out with rent""}","interaction","M",NA,NA,"",0,0,0,0,"None","Male",27,"","","","","",NA,NA,NA,"","low",35,"interaction",0,0,"M","M","no","no",NA,"interaction",3.0625,2.0254366484838,5.9375,1.06003311871184,5.60416666666667,1.42529703262361,4.70833333333333,1.27092416254879
"129",2,"low_entitlement","I hate to ask but can I borrow a couple bucks for rent?",25576,"","survey-text",4,150680,"0.0-4.0",52422,"group1","",440803,"{""Q0"":""I hate to ask but can I borrow a couple bucks for rent?""}","interaction","M",NA,NA,"",0,0,0,0,"None","Male",23,"","","","","",NA,NA,NA,"","low",64,"interaction",0,0,"M","M","no","no",NA,"interaction",3.0625,2.0254366484838,5.9375,1.06003311871184,5.60416666666667,1.42529703262361,4.70833333333333,1.27092416254879
"130",2,"low_entitlement","mate im in trouble i need you borough some money and i promise the next week i will pay you",58847,"","survey-text",7,274815,"0.0-7.0",92695,"group1","",514094,"{""Q0"":""mate im in trouble i need you borough some money and i promise the next week i will pay you""}","interaction","D",1,NA,"",1,0,0,1,"Repay","Male",35,"","","","","",NA,NA,NA,"","low",100,"interaction",1,0,"D","D","no","yes",NA,"interaction",3.0625,2.0254366484838,5.9375,1.06003311871184,5.60416666666667,1.42529703262361,4.70833333333333,1.27092416254879
"131",2,"low_entitlement","Hey man, I know it sucks, but I'm a bit tight again this month.  Could I bum $20 from you.  I swear I'll pay it back as soon as I get some cash.",35025,"","survey-text",3,83445,"0.0-3.0",22232,"group1","",128793,"{""Q0"":""Hey man, I know it sucks, but I'm a bit tight again this month.  Could I bum $20 from you.  I swear I'll pay it back as soon as I get some cash.""}","interaction","M",1,NA,"",1,0,1,1,"Both","Male",47,"","","","","",NA,NA,NA,"","low",153,"interaction",1,0,"M","M","no","yes",NA,"interaction",3.0625,2.0254366484838,5.9375,1.06003311871184,5.60416666666667,1.42529703262361,4.70833333333333,1.27092416254879
"132",2,"low_entitlement","I know I owe you already, but the landlord is getting angry.  Would you please cover me for the rent until I can get it back to you?",40589,"","survey-text",5,190876,"0.0-5.0",63004,"group1","A3UEJQ4EJB9DBD",301767,"{""Q0"":""I know I owe you already, but the landlord is getting angry.  Would you please cover me for the rent until I can get it back to you?""}","interaction","M",1,NA,"",1,0,1,1,"Both","Male",52,"","","","","",NA,NA,NA,"","low",141,"interaction",1,0,"M","M","no","yes",NA,"interaction",3.0625,2.0254366484838,5.9375,1.06003311871184,5.60416666666667,1.42529703262361,4.70833333333333,1.27092416254879
"133",2,"low_entitlement","Hey man, I know you've spotted me before but I was wondering if you could loan me some cash so I can cover this month's rent? I will pay you back as soon as I have the cash.",115421,"","survey-text",3,182679,"0.0-3.0",89429,"group1","",99387,"{""Q0"":""Hey man, I know you've spotted me before but I was wondering if you could loan me some cash so I can cover this month's rent? I will pay you back as soon as I have the cash.""}","interaction","EM",1,1,"",1,1,1,1,"Both","Male",24,"","","","","",NA,NA,NA,"","low",182,"interaction",1,1,"EM","EM","yes","yes",NA,"interaction",3.0625,2.0254366484838,5.9375,1.06003311871184,5.60416666666667,1.42529703262361,4.70833333333333,1.27092416254879
"134",2,"low_entitlement","I need more money and I promise to give a little bit back afterwards.",19752,"","survey-text",8,248208,"0.0-8.0",82767,"group1","",46748,"{""Q0"":""I need more money and I promise to give a little bit back afterwards.""}","interaction","D",NA,NA,"",0,0,0,0,"None","Male",29,"D","0","0","","IS",0,1,0,"","low",78,"interaction",0,0,"D","D","no","no",NA,"interaction",3.0625,2.0254366484838,5.9375,1.06003311871184,5.60416666666667,1.42529703262361,4.70833333333333,1.27092416254879
"135",2,"low_entitlement","Roommate, I know I've borrowed from you a ton and all.  I'm just in a bit of a pickle here at the moment and I won't have a place to live if I can't pay rent.  I just need a bit more.  I swear I'll pay you back asap!  Please can you help?",71245,"","survey-text",3,165489,"0.0-3.0",49665,"group1","",958968,"{""Q0"":""Roommate, I know I've borrowed from you a ton and all.  I'm just in a bit of a pickle here at the moment and I won't have a place to live if I can't pay rent.  I just need a bit more.  I swear I'll pay you back asap!  Please can you help?""}","interaction","M",1,NA,"",1,0,1,1,"Both","Male",41,"","","","","",NA,NA,NA,"","low",247,"interaction",1,0,"M","M","no","yes",NA,"interaction",3.0625,2.0254366484838,5.9375,1.06003311871184,5.60416666666667,1.42529703262361,4.70833333333333,1.27092416254879
"136",2,"low_entitlement","I know I've been borrowing a lot but I have a job that will start soon. Can you please lend me this just one last time? I'll be sure to make it up to you. ",42166,"","survey-text",7,235483,"0.0-7.0",63609,"group1","",434142,"{""Q0"":""I know I've been borrowing a lot but I have a job that will start soon. Can you please lend me this just one last time? I'll be sure to make it up to you. ""}","interaction","M",1,1,"Is this correct analysis of contingencies?",1,1,0,1,"Repay","Female",29,"","","","","",NA,NA,NA,"","low",164,"interaction",1,1,"M","M","yes","yes",NA,"interaction",3.0625,2.0254366484838,5.9375,1.06003311871184,5.60416666666667,1.42529703262361,4.70833333333333,1.27092416254879
"137",2,"low_entitlement","I need to borrow some money.",11583,"","survey-text",8,155397,"0.0-8.0",85277,"group1","",458205,"{""Q0"":""I need to borrow some money.""}","interaction","D",NA,NA,"",0,0,0,0,"None","Male",30,"","","","","",NA,NA,NA,"","low",37,"interaction",0,0,"D","D","no","no",NA,"interaction",3.0625,2.0254366484838,5.9375,1.06003311871184,5.60416666666667,1.42529703262361,4.70833333333333,1.27092416254879
"138",2,"low_entitlement","I know it's not the first time I ask and I really feel bad about it, but I don't have enough for the rent right now. Do you think you could cover for me and I'll pay back everything starting this week. Maybe we could do installments?",88436,"","survey-text",7,494087,"0.0-7.0",1392,"group1","",602783,"{""Q0"":""I know it's not the first time I ask and I really feel bad about it, but I don't have enough for the rent right now. Do you think you could cover for me and I'll pay back everything starting this week. Maybe we could do installments?""}","interaction","EM",1,NA,"Offers repayment",1,0,1,1,"Both","Female",57,"EM","1","0","","EM",1,1,1,"","low",242,"interaction",1,0,"EM","EM","no","yes",NA,"interaction",3.0625,2.0254366484838,5.9375,1.06003311871184,5.60416666666667,1.42529703262361,4.70833333333333,1.27092416254879
"139",2,"low_entitlement","Hey, I know I already mooched so much, but the rent is due and I can't quite make it.",23217,"","survey-text",4,82169,"0.0-4.0",77798,"group1","",431436,"{""Q0"":""Hey, I know I already mooched so much, but the rent is due and I can't quite make it.""}","interaction","IS",1,1,"",1,1,0,0,"Reason","Male",27,"","","","","",NA,NA,NA,"","low",94,"interaction",1,1,"IS","IS","yes","yes",NA,"interaction",3.0625,2.0254366484838,5.9375,1.06003311871184,5.60416666666667,1.42529703262361,4.70833333333333,1.27092416254879
"140",2,"low_entitlement","do you think i could please borrow (however amount), ill be able to pay you back (at specific time)",30336,"","survey-text",5,149381,"0.0-5.0",55368,"group1","AGDJB8B8CDZ71",850786,"{""Q0"":""do you think i could please borrow (however amount), ill be able to pay you back (at specific time)""}","interaction","EM",1,NA,"",1,0,0,1,"Repay","Male",34,"","","","","",NA,NA,NA,"","low",108,"interaction",1,0,"EM","EM","no","yes",NA,"interaction",3.0625,2.0254366484838,5.9375,1.06003311871184,5.60416666666667,1.42529703262361,4.70833333333333,1.27092416254879
"141",2,"low_entitlement","I'm sorry to ask for more money, but my landlord is getting demanding. Can you please lend me more money so I can pay the rent?",48487,"","survey-text",6,246800,"0.0-6.0",91013,"group1","",294599,"{""Q0"":""I'm sorry to ask for more money, but my landlord is getting demanding. Can you please lend me more money so I can pay the rent?""}","interaction","M",1,NA,"",1,0,1,0,"Reason","Female",31,"M","1","0","","M",1,0,1,"","low",136,"interaction",1,0,"M","M","no","yes",NA,"interaction",3.0625,2.0254366484838,5.9375,1.06003311871184,5.60416666666667,1.42529703262361,4.70833333333333,1.27092416254879
"142",2,"low_entitlement","I'm sorry to have to ask you, but I'm short on rent, and I'm afraid the landlord is going to kick me out. Could you please help me out again?",66505,"","survey-text",2,129200,"0.0-2.0",34992,"group1","",249218,"{""Q0"":""I'm sorry to have to ask you, but I'm short on rent, and I'm afraid the landlord is going to kick me out. Could you please help me out again?""}","interaction","M",1,NA,"",1,0,1,0,"Reason","Male",45,"M","1","0","","M",1,0,1,"","low",150,"interaction",1,0,"M","M","no","yes",NA,"interaction",3.0625,2.0254366484838,5.9375,1.06003311871184,5.60416666666667,1.42529703262361,4.70833333333333,1.27092416254879
"143",3,"high_entitlement","""Could you please find copies of the quarterly and expense reports and have them on my desk ASAP?""",23801,"","survey-text",9,186323,"0.0-9.0",15859,"group1","",78335,"{""Q0"":""\""Could you please find copies of the quarterly and expense reports and have them on my desk ASAP?\""""}","relationship","M",NA,NA,"",0,0,0,0,"None","Male",45,"M","0","0","","M",0,0,0,"","high",109,"relationship",0,0,"M","M","no","no",NA,"relationship",5.27083333333333,1.62086899904241,3.97916666666667,1.85069950356136,3.78723404255319,2.25481292208434,4.08333333333333,1.35007223342345
"144",3,"high_entitlement","Get me the copies of expenses and quarterly reports.",22375,"","survey-text",3,83171,"0.0-3.0",59507,"group1","",328856,"{""Q0"":""Get me the copies of expenses and quarterly reports.""}","relationship","D",NA,NA,"",0,0,0,0,"None","Male",33,"","","","","",NA,NA,NA,"","high",61,"relationship",0,0,"D","D","no","no",NA,"relationship",5.27083333333333,1.62086899904241,3.97916666666667,1.85069950356136,3.78723404255319,2.25481292208434,4.08333333333333,1.35007223342345
"145",3,"high_entitlement","Hi, could you do me a favor,Im kinda in a tight situation with work. Could you help me with this paperwork. ",110591,"","survey-text",7,731801,"0.0-7.0",39966,"group1","",72820,"{""Q0"":""Hi, could you do me a favor,Im kinda in a tight situation with work. Could you help me with this paperwork. ""}","relationship","M",1,NA,"",1,0,1,0,"Reason","Female",35,"","","","","",NA,NA,NA,"","high",117,"relationship",1,0,"M","M","no","yes",NA,"relationship",5.27083333333333,1.62086899904241,3.97916666666667,1.85069950356136,3.78723404255319,2.25481292208434,4.08333333333333,1.35007223342345
"146",3,"high_entitlement","If you have time, could you get my the copies of the expense and quarterly reports for our investors? ",35232,"","survey-text",5,152678,"0.0-5.0",86201,"group1","",732059,"{""Q0"":""If you have time, could you get my the copies of the expense and quarterly reports for our investors? ""}","relationship","M",NA,1,"""if you have time""",0,1,0,0,"None","Male",33,"","","","","",NA,NA,NA,"","high",111,"relationship",0,1,"M","M","yes","no",NA,"relationship",5.27083333333333,1.62086899904241,3.97916666666667,1.85069950356136,3.78723404255319,2.25481292208434,4.08333333333333,1.35007223342345
"147",3,"high_entitlement","Please make copies of these reports, I'm super busy right now.",30656,"","survey-text",6,178886,"0.0-6.0",22232,"group1","",128793,"{""Q0"":""Please make copies of these reports, I'm super busy right now.""}","relationship","D",1,NA,"",1,0,1,0,"Reason","Male",47,"","","","","",NA,NA,NA,"","high",71,"relationship",1,0,"D","D","no","yes",NA,"relationship",5.27083333333333,1.62086899904241,3.97916666666667,1.85069950356136,3.78723404255319,2.25481292208434,4.08333333333333,1.35007223342345
"148",3,"high_entitlement","Please make 25 copies of the expense and quarterly reports, collate and staple them, and give them to me by 3:00 pm.",62678,"","survey-text",9,399992,"0.0-9.0",34992,"group1","",249218,"{""Q0"":""Please make 25 copies of the expense and quarterly reports, collate and staple them, and give them to me by 3:00 pm.""}","relationship","D",NA,NA,"Pretty detailed",0,0,0,0,"None","Male",45,"D","0","0","","D",0,0,0,"","high",125,"relationship",0,0,"D","D","no","no",NA,"relationship",5.27083333333333,1.62086899904241,3.97916666666667,1.85069950356136,3.78723404255319,2.25481292208434,4.08333333333333,1.35007223342345
"149",3,"high_entitlement","i need the copies of the expenses reports quickly",32581,"","survey-text",9,368458,"0.0-9.0",92695,"group1","",514094,"{""Q0"":""i need the copies of the expenses reports quickly""}","relationship","D",NA,NA,"",0,0,0,0,"None","Male",35,"","","","","",NA,NA,NA,"","high",58,"relationship",0,0,"D","D","no","no",NA,"relationship",5.27083333333333,1.62086899904241,3.97916666666667,1.85069950356136,3.78723404255319,2.25481292208434,4.08333333333333,1.35007223342345
"150",3,"high_entitlement","Get me those reports.",15090,"","survey-text",6,108385,"0.0-6.0",49422,"group1","A35TWG9VW1MB5S",347341,"{""Q0"":""Get me those reports.""}","relationship","D",NA,NA,"",0,0,0,0,"None","Female",69,"","","","","",NA,NA,NA,"","high",30,"relationship",0,0,"D","D","no","no",NA,"relationship",5.27083333333333,1.62086899904241,3.97916666666667,1.85069950356136,3.78723404255319,2.25481292208434,4.08333333333333,1.35007223342345
"151",3,"high_entitlement","Hey [secretary name] can you make me some copies of the expense and quarterly reports?",20491,"","survey-text",6,120855,"0.0-6.0",77798,"group1","",431436,"{""Q0"":""Hey [secretary name] can you make me some copies of the expense and quarterly reports?""}","relationship","M",NA,NA,"",0,0,0,0,"None","Male",27,"","","","","",NA,NA,NA,"","high",95,"relationship",0,0,"M","M","no","no",NA,"relationship",5.27083333333333,1.62086899904241,3.97916666666667,1.85069950356136,3.78723404255319,2.25481292208434,4.08333333333333,1.35007223342345
"152",3,"high_entitlement","Could you please make copies of the expense and quarterly reports for our investors?",34652,"","survey-text",7,282454,"0.0-7.0",91013,"group1","",294599,"{""Q0"":""Could you please make copies of the expense and quarterly reports for our investors?""}","relationship","M",NA,NA,"",0,0,0,0,"None","Female",31,"M","0","0","","M",0,0,0,"","high",93,"relationship",0,0,"M","M","no","no",NA,"relationship",5.27083333333333,1.62086899904241,3.97916666666667,1.85069950356136,3.78723404255319,2.25481292208434,4.08333333333333,1.35007223342345
"153",3,"high_entitlement","Could you please make copies of the expense and quarterly reports?  It's time sensitive.",37290,"","survey-text",6,208626,"0.0-6.0",63745,"group1","",337297,"{""Q0"":""Could you please make copies of the expense and quarterly reports?  It's time sensitive.""}","relationship","M",NA,NA,"",0,0,0,0,"None","Male",42,"","","","","",NA,NA,NA,"","high",97,"relationship",0,0,"M","M","no","no",NA,"relationship",5.27083333333333,1.62086899904241,3.97916666666667,1.85069950356136,3.78723404255319,2.25481292208434,4.08333333333333,1.35007223342345
"154",3,"high_entitlement","Print me out some copies of the expense and quarterly reports for my meeting.",31510,"","survey-text",7,246272,"0.0-7.0",7730,"group1","",682846,"{""Q0"":""Print me out some copies of the expense and quarterly reports for my meeting.""}","relationship","D",NA,NA,"",0,0,0,0,"None","Male",34,"","","","","",NA,NA,NA,"","high",86,"relationship",0,0,"D","D","no","no",NA,"relationship",5.27083333333333,1.62086899904241,3.97916666666667,1.85069950356136,3.78723404255319,2.25481292208434,4.08333333333333,1.35007223342345
"155",3,"high_entitlement","Could you please locate copies of the expense and quarterly reports for me? I need to get them to the investors and I'm currently overloaded. ",54512,"","survey-text",8,250173,"0.0-8.0",43857,"group1","",516593,"{""Q0"":""Could you please locate copies of the expense and quarterly reports for me? I need to get them to the investors and I'm currently overloaded. ""}","relationship","M",1,NA,"",1,0,1,0,"Reason","Male",28,"M","1","0","","M",1,0,0,"","high",151,"relationship",1,0,"M","M","no","yes",NA,"relationship",5.27083333333333,1.62086899904241,3.97916666666667,1.85069950356136,3.78723404255319,2.25481292208434,4.08333333333333,1.35007223342345
"156",3,"high_entitlement","I'm really sorry to add to your workload but we're in a bit of a rush here and I really need copies of the expense and quarterly reports for the investors meeting. Do you think you could get that out for me?",119928,"","survey-text",6,404644,"0.0-6.0",1392,"group1","",602783,"{""Q0"":""I'm really sorry to add to your workload but we're in a bit of a rush here and I really need copies of the expense and quarterly reports for the investors meeting. Do you think you could get that out for me?""}","relationship","EM",1,NA,"",1,0,1,0,"Reason","Female",57,"EM","1","0","","EM",1,0,1,"","high",216,"relationship",1,0,"EM","EM","no","yes",NA,"relationship",5.27083333333333,1.62086899904241,3.97916666666667,1.85069950356136,3.78723404255319,2.25481292208434,4.08333333333333,1.35007223342345
"157",3,"high_entitlement","Could I get copies of the quarterly reports please?",25366,"","survey-text",8,334093,"0.0-8.0",23737,"group1","",197120,"{""Q0"":""Could I get copies of the quarterly reports please?""}","relationship","M",NA,NA,"",0,0,0,0,"None","Male",27,"M","0","0","","M",0,0,0,"","high",60,"relationship",0,0,"M","M","no","no",NA,"relationship",5.27083333333333,1.62086899904241,3.97916666666667,1.85069950356136,3.78723404255319,2.25481292208434,4.08333333333333,1.35007223342345
"158",3,"high_entitlement","Hey secretary, could you print me out some copies of the expense and quarterly reports for our investors? 10 copies should be good.",28381,"","survey-text",4,212062,"0.0-4.0",89429,"group1","",99387,"{""Q0"":""Hey secretary, could you print me out some copies of the expense and quarterly reports for our investors? 10 copies should be good.""}","relationship","M",NA,NA,"",0,0,0,0,"None","Male",24,"","","","","",NA,NA,NA,"","high",140,"relationship",0,0,"M","M","no","no",NA,"relationship",5.27083333333333,1.62086899904241,3.97916666666667,1.85069950356136,3.78723404255319,2.25481292208434,4.08333333333333,1.35007223342345
"159",3,"high_entitlement","Miss secretary, I'm running really short on time here.  I could really use your help in getting the expense/quarterly reports asap please on my desk.  Sorry for the short notice.",59026,"","survey-text",5,303240,"0.0-5.0",49665,"group1","",958968,"{""Q0"":""Miss secretary, I'm running really short on time here.  I could really use your help in getting the expense/quarterly reports asap please on my desk.  Sorry for the short notice.""}","relationship","M",1,NA,"",1,0,1,0,"Reason","Male",41,"","","","","",NA,NA,NA,"","high",187,"relationship",1,0,"M","M","no","yes",NA,"relationship",5.27083333333333,1.62086899904241,3.97916666666667,1.85069950356136,3.78723404255319,2.25481292208434,4.08333333333333,1.35007223342345
"160",3,"high_entitlement","Please make copies of the reports.",17618,"","survey-text",4,188072,"0.0-4.0",82767,"group1","",46748,"{""Q0"":""Please make copies of the reports.""}","relationship","D",NA,NA,"",0,0,0,0,"None","Male",29,"D","0","0","","D",0,0,0,"","high",43,"relationship",0,0,"D","D","no","no",NA,"relationship",5.27083333333333,1.62086899904241,3.97916666666667,1.85069950356136,3.78723404255319,2.25481292208434,4.08333333333333,1.35007223342345
"161",3,"high_entitlement","Please make copies immediately.",67538,"","survey-text",4,112068,"0.0-4.0",85277,"group1","",458205,"{""Q0"":""Please make copies immediately.""}","relationship","D",NA,NA,"",0,0,0,0,"None","Male",30,"","","","","",NA,NA,NA,"","high",40,"relationship",0,0,"D","D","no","no",NA,"relationship",5.27083333333333,1.62086899904241,3.97916666666667,1.85069950356136,3.78723404255319,2.25481292208434,4.08333333333333,1.35007223342345
"162",3,"high_entitlement","can you please make (however many copies) of these",22197,"","survey-text",4,118032,"0.0-4.0",55368,"group1","AGDJB8B8CDZ71",850786,"{""Q0"":""can you please make (however many copies) of these""}","relationship","M",NA,NA,"",0,0,0,0,"None","Male",34,"","","","","",NA,NA,NA,"","high",59,"relationship",0,0,"M","M","no","no",NA,"relationship",5.27083333333333,1.62086899904241,3.97916666666667,1.85069950356136,3.78723404255319,2.25481292208434,4.08333333333333,1.35007223342345
"163",3,"high_entitlement","Could you please make these copies for me?",25667,"","survey-text",9,316135,"0.0-9.0",52885,"group1","",147191,"{""Q0"":""Could you please make these copies for me?""}","relationship","M",NA,NA,"",0,0,0,0,"None","Male",31,"","","","","",NA,NA,NA,"","high",51,"relationship",0,0,"M","M","no","no",NA,"relationship",5.27083333333333,1.62086899904241,3.97916666666667,1.85069950356136,3.78723404255319,2.25481292208434,4.08333333333333,1.35007223342345
"164",3,"high_entitlement","May I have the expense reports for I can do my papers?",14704,"","survey-text",9,466785,"0.0-9.0",75040,"group1","",342904,"{""Q0"":""May I have the expense reports for I can do my papers?""}","relationship","M",NA,NA,"",0,0,0,0,"None","Male",31,"","","","","",NA,NA,NA,"","high",63,"relationship",0,0,"M","M","no","no",NA,"relationship",5.27083333333333,1.62086899904241,3.97916666666667,1.85069950356136,3.78723404255319,2.25481292208434,4.08333333333333,1.35007223342345
"165",3,"high_entitlement","Can you send me copies?",8895,"","survey-text",9,103507,"0.0-9.0",72774,"group1","",581306,"{""Q0"":""Can you send me copies?""}","relationship","M",NA,NA,"",0,0,0,0,"None","Male",30,"","","","","",NA,NA,NA,"","high",32,"relationship",0,0,"M","M","no","no",NA,"relationship",5.27083333333333,1.62086899904241,3.97916666666667,1.85069950356136,3.78723404255319,2.25481292208434,4.08333333333333,1.35007223342345
"166",3,"high_entitlement","I'm gonna need copies of the quarterly reports. Please try to have them on my desk asap. ",44617,"","survey-text",6,192309,"0.0-6.0",63609,"group1","",434142,"{""Q0"":""I'm gonna need copies of the quarterly reports. Please try to have them on my desk asap. ""}","relationship","D",NA,NA,"",0,0,0,0,"None","Female",29,"","","","","",NA,NA,NA,"","high",98,"relationship",0,0,"D","D","no","no",NA,"relationship",5.27083333333333,1.62086899904241,3.97916666666667,1.85069950356136,3.78723404255319,2.25481292208434,4.08333333333333,1.35007223342345
"167",3,"high_entitlement","Can you get me the copies of the expense and quarterly reports?",14820,"","survey-text",5,66028,"0.0-5.0",87835,"group1","",798603,"{""Q0"":""Can you get me the copies of the expense and quarterly reports?""}","relationship","M",NA,NA,"",0,0,0,0,"None","Male",46,"M","0","0","","M",0,0,0,"","high",72,"relationship",0,0,"M","M","no","no",NA,"relationship",5.27083333333333,1.62086899904241,3.97916666666667,1.85069950356136,3.78723404255319,2.25481292208434,4.08333333333333,1.35007223342345
"168",3,"high_entitlement","Hey, I'm really busy--would you please print enough copies of the expense and quarterly reports for the investors?",66655,"","survey-text",2,81976,"0.0-2.0",63004,"group1","A3UEJQ4EJB9DBD",301767,"{""Q0"":""Hey, I'm really busy--would you please print enough copies of the expense and quarterly reports for the investors?""}","relationship","M",1,NA,"",1,0,1,0,"Reason","Male",52,"","","","","",NA,NA,NA,"","high",123,"relationship",1,0,"M","M","no","yes",NA,"relationship",5.27083333333333,1.62086899904241,3.97916666666667,1.85069950356136,3.78723404255319,2.25481292208434,4.08333333333333,1.35007223342345
"169",3,"high_entitlement","Hey I am buried in work and I need you to get those reports together for me",37887,"","survey-text",8,313213,"0.0-8.0",52422,"group1","",440803,"{""Q0"":""Hey I am buried in work and I need you to get those reports together for me""}","relationship","D",1,NA,"",1,0,1,0,"Reason","Male",23,"","","","","",NA,NA,NA,"","high",84,"relationship",1,0,"D","D","no","yes",NA,"relationship",5.27083333333333,1.62086899904241,3.97916666666667,1.85069950356136,3.78723404255319,2.25481292208434,4.08333333333333,1.35007223342345
"170",3,"high_entitlement","Can i get copies of those reports",10489,"","survey-text",5,77686,"0.0-5.0",6582,"group1","",277836,"{""Q0"":""Can i get copies of those reports""}","relationship","M",NA,NA,"",0,0,0,0,"None","Male",27,"","","","","",NA,NA,NA,"","high",42,"relationship",0,0,"M","M","no","no",NA,"relationship",5.27083333333333,1.62086899904241,3.97916666666667,1.85069950356136,3.78723404255319,2.25481292208434,4.08333333333333,1.35007223342345
"171",3,"low_entitlement","I'm still finishing the project of compiling documents for you but I need some copies of the expense reports too, can you grant me access to get these?",42806,"","survey-text",8,299319,"0.0-8.0",36443,"group2","",577183,"{""Q0"":""I'm still finishing the project of compiling documents for you but I need some copies of the expense reports too, can you grant me access to get these?""}","relationship","M",1,NA,"",1,0,1,0,"Reason","Female",29,"","","","","",NA,NA,NA,"","low",160,"relationship",1,0,"M","M","no","yes",NA,"relationship",4.82692307692308,1.67707908831892,4.0377358490566,1.66366444646176,6.09433962264151,1.34827740445407,3.11320754716981,1.66017118392711
"172",3,"low_entitlement","Do I need special permission for these reports? I need to copy them. ",39569,"","survey-text",8,279935,"0.0-8.0",6531,"group2","",918839,"{""Q0"":""Do I need special permission for these reports? I need to copy them. ""}","relationship","EM",1,NA,"",1,0,1,0,"Reason","Male",45,"","","","","",NA,NA,NA,"","low",78,"relationship",1,0,"EM","EM","no","yes",NA,"relationship",4.82692307692308,1.67707908831892,4.0377358490566,1.66366444646176,6.09433962264151,1.34827740445407,3.11320754716981,1.66017118392711
"173",3,"low_entitlement","May I have access to the expense reports so I can complete my task?",21754,"","survey-text",5,141854,"0.0-5.0",41552,"group2","",857091,"{""Q0"":""May I have access to the expense reports so I can complete my task?""}","relationship","M",1,NA,"",1,0,1,0,"Reason","Female",27,"M","0","0","","M",1,0,0,"","low",76,"relationship",1,0,"M","M","no","yes",NA,"relationship",4.82692307692308,1.67707908831892,4.0377358490566,1.66366444646176,6.09433962264151,1.34827740445407,3.11320754716981,1.66017118392711
"174",3,"low_entitlement","I need access to the company's expense reports, can you give it to me? ",34512,"","survey-text",3,138696,"0.0-3.0",58827,"group2","",829464,"{""Q0"":""I need access to the company's expense reports, can you give it to me? ""}","relationship","M",1,NA,"",1,0,1,0,"Reason","Male",30,"","","","","",NA,NA,NA,"","low",80,"relationship",1,0,"M","M","no","yes",NA,"relationship",4.82692307692308,1.67707908831892,4.0377358490566,1.66366444646176,6.09433962264151,1.34827740445407,3.11320754716981,1.66017118392711
"175",3,"low_entitlement","Hi, I was wondering if I could get copies of the company's expense reports. I need them to compile the documents I'm working on.",40810,"","survey-text",6,206177,"0.0-6.0",63191,"group2","",553371,"{""Q0"":""Hi, I was wondering if I could get copies of the company's expense reports. I need them to compile the documents I'm working on.""}","relationship","EM",1,NA,"",1,0,1,0,"Reason","Male",36,"","","","","",NA,NA,NA,"","low",137,"relationship",1,0,"EM","EM","no","yes",NA,"relationship",4.82692307692308,1.67707908831892,4.0377358490566,1.66366444646176,6.09433962264151,1.34827740445407,3.11320754716981,1.66017118392711
"176",3,"low_entitlement","Can I get copies of the company's expense reports?",24716,"","survey-text",9,146998,"0.0-9.0",23266,"group2","",219492,"{""Q0"":""Can I get copies of the company's expense reports?""}","relationship","M",NA,NA,"",0,0,0,0,"None","Female",33,"","","","","",NA,NA,NA,"","low",59,"relationship",0,0,"M","M","no","no",NA,"relationship",4.82692307692308,1.67707908831892,4.0377358490566,1.66366444646176,6.09433962264151,1.34827740445407,3.11320754716981,1.66017118392711
"177",3,"low_entitlement","Jack I need the expense reports for the documents I am working on. Do you think you can get it for me please?",56912,"","survey-text",8,360150,"0.0-8.0",79560,"group2","",235145,"{""Q0"":""Jack I need the expense reports for the documents I am working on. Do you think you can get it for me please?""}","relationship","EM",1,NA,"",1,0,1,0,"Reason","Male",37,"","","","","",NA,NA,NA,"","low",118,"relationship",1,0,"EM","EM","no","yes",NA,"relationship",4.82692307692308,1.67707908831892,4.0377358490566,1.66366444646176,6.09433962264151,1.34827740445407,3.11320754716981,1.66017118392711
"178",3,"low_entitlement","I am sorry to bother you but cloud I have a copy of the companies expense report so that I can finish compiling these documents. ",94627,"","survey-text",4,269030,"0.0-4.0",10233,"group2","",128454,"{""Q0"":""I am sorry to bother you but cloud I have a copy of the companies expense report so that I can finish compiling these documents. ""}","relationship","M",1,1,"",1,1,1,0,"Reason","Male",34,"M","1","0","Assumed misspelling of ""could""","M",1,0,0,"","low",138,"relationship",1,1,"M","M","yes","yes",NA,"relationship",4.82692307692308,1.67707908831892,4.0377358490566,1.66366444646176,6.09433962264151,1.34827740445407,3.11320754716981,1.66017118392711
