"","rt","url","trial_type","trial_index","time_elapsed","internal_node_id","subject","group","turkID","surveyCode","responses","stimType","stimNum","type","request","Code.ST","Preface.ST","Contingencies.ST","Comments.ST","Preface2.ST","Contingencies2.ST","Just1.ST","Just2.ST","JustAll.ST","Gender","Age","condition","length","situation","justification","contingencies","formatting","conts.coded","just.coded"
"1",14820,"","survey-text",5,66028,"0.0-5.0",87835,"group1","",798603,"{""Q0"":""Can you get me the copies of the expense and quarterly reports?""}","high_entitlement",3,"relationship","Can you get me the copies of the expense and quarterly reports?","M",NA,NA,"",0,0,0,0,"None","Male",52,"high",72,"relationship",0,0,"M","no","no"
"2",17471,"","survey-text",6,84503,"0.0-6.0",87835,"group1","",798603,"{""Q0"":""Would you mind helping me move this desk?""}","high_entitlement",1,"interaction","Would you mind helping me move this desk?","EM",NA,NA,"",0,0,0,0,"None","Male",52,"high",50,"interaction",0,0,"EM","no","no"
"3",12676,"","survey-text",7,98184,"0.0-7.0",87835,"group1","",798603,"{""Q0"":""Hi, would you mind terribly giving me a lift home?""}","low_entitlement",4,"relationship","Hi, would you mind terribly giving me a lift home?","EM",NA,NA,"",0,0,0,0,"None","Male",52,"low",59,"relationship",0,0,"EM","no","no"
"4",19170,"","survey-text",8,118360,"0.0-8.0",87835,"group1","",798603,"{""Q0"":""Hey, I'm sorry to be a bother, but I'm still short on cash. Can you help?""}","low_entitlement",2,"interaction","Hey, I'm sorry to be a bother, but I'm still short on cash. Can you help?","M",1,NA,"",1,0,1,0,"Reason","Male",52,"low",82,"interaction",1,0,"M","no","yes"
"5",13773,"","survey-text",9,133137,"0.0-9.0",87835,"group1","",798603,"{""Q0"":""I'd like to make an appointment for a physical please. ""}","low_entitlement",6,"urgency","I'd like to make an appointment for a physical please. ","D",NA,NA,"",0,0,0,0,"None","Male",52,"low",64,"urgency",0,0,"D","no","no"
"6",20011,"","survey-text",2,55161,"0.0-2.0",54974,"group2","",72914,"{""Q0"":""got a cat stuck in a tall tree... help!""}","low_entitlement",5,"urgency","got a cat stuck in a tall tree... help!","D",1,NA,"",1,0,1,0,"Reason","Female",25,"low",48,"urgency",1,0,"D","no","yes"
"7",41294,"","survey-text",3,97457,"0.0-3.0",54974,"group2","",72914,"{""Q0"":""hey roommee the rent's on you the next 6 months. ""}","high_entitlement",2,"interaction","hey roommee the rent's on you the next 6 months. ","D",NA,NA,"",0,0,0,0,"None","Female",25,"high",58,"interaction",0,0,"D","no","no"
"8",29629,"","survey-text",4,128089,"0.0-4.0",54974,"group2","",72914,"{""Q0"":""hey boss, can I get access to the company's expense report this this month. thanks! ""}","low_entitlement",3,"relationship","hey boss, can I get access to the company's expense report this this month. thanks! ","M",NA,NA,"",0,0,0,0,"None","Female",25,"low",93,"relationship",0,0,"M","no","no"
"9",59215,"","survey-text",5,188306,"0.0-5.0",54974,"group2","",72914,"{""Q0"":""hey dude, I hope you ate your wheaties, I need to move my stuff and it's really back breaking. can you help?""}","low_entitlement",1,"interaction","hey dude, I hope you ate your wheaties, I need to move my stuff and it's really back breaking. can you help?","M",1,NA,"",1,0,1,0,"Reason","Female",25,"low",117,"interaction",1,0,"M","no","yes"
"10",18445,"","survey-text",9,278193,"0.0-9.0",54974,"group2","",72914,"{""Q0"":""hey honey, please come get me! thanks!""}","high_entitlement",4,"relationship","hey honey, please come get me! thanks!","D",NA,NA,"",0,0,0,0,"None","Female",25,"high",47,"relationship",0,0,"D","no","no"
"11",85516,"","survey-text",2,202386,"0.0-2.0",27819,"group2","",117980,"{""Q0"":""Hey, could you help me move this stuff? I'll buy you lunch. ""}","low_entitlement",1,"interaction","Hey, could you help me move this stuff? I'll buy you lunch. ","M",1,NA,"Offers to buy lunch (display of entitlement)",1,0,0,1,"Repay","Female",25,"low",69,"interaction",1,0,"M","no","yes"
"12",68750,"","survey-text",4,299474,"0.0-4.0",27819,"group2","",117980,"{""Q0"":""I just got in. Can you come get me, please? ""}","high_entitlement",4,"relationship","I just got in. Can you come get me, please? ","M",NA,NA,"",0,0,0,0,"None","Female",25,"high",53,"relationship",0,0,"M","no","no"
"13",61326,"","survey-text",7,456858,"0.0-7.0",27819,"group2","",117980,"{""Q0"":""I need to finish these reports and don't have access to everything. Can you give me access so I can finish?""}","low_entitlement",3,"relationship","I need to finish these reports and don't have access to everything. Can you give me access so I can finish?","M",1,NA,"",1,0,1,0,"Reason","Female",25,"low",116,"relationship",1,0,"M","no","yes"
"14",39037,"","survey-text",8,496897,"0.0-8.0",27819,"group2","",117980,"{""Q0"":""My cat is stuck at the top of the tree. Is there any way someone could come help me?""}","low_entitlement",5,"urgency","My cat is stuck at the top of the tree. Is there any way someone could come help me?","EM",1,NA,"",1,0,1,0,"Reason","Female",25,"low",93,"urgency",1,0,"EM","no","yes"
"15",42862,"","survey-text",9,540761,"0.0-9.0",27819,"group2","",117980,"{""Q0"":""Hey, could you help cover my part of the rent this month? I'll get you back next time. ""}","high_entitlement",2,"interaction","Hey, could you help cover my part of the rent this month? I'll get you back next time. ","M",1,NA,"Offers repayment (""next time"")",1,0,0,1,"Repay","Female",25,"high",96,"interaction",1,0,"M","no","yes"
"16",35227,"","survey-text",2,65429,"0.0-2.0",11882,"group2","A3PN17H3QT51O",754892,"{""Q0"":""My cat is stuck in a tree can you send somebody to help me get him out?""}","low_entitlement",5,"urgency","My cat is stuck in a tree can you send somebody to help me get him out?","M",1,NA,"",1,0,1,0,"Reason","Female",25,"low",80,"urgency",1,0,"M","no","yes"
"17",142831,"","survey-text",3,209269,"0.0-3.0",11882,"group2","A3PN17H3QT51O",754892,"{""Q0"":""Excuse me sir I need copies of the expense reports to finish compiling the documents you wanted and I do not have access.  I need you to give me access to them when you have the chance.""}","low_entitlement",3,"relationship","Excuse me sir I need copies of the expense reports to finish compiling the documents you wanted and I do not have access.  I need you to give me access to them when you have the chance.","D",1,1,"",1,1,1,0,"Reason","Female",25,"low",194,"relationship",1,1,"D","yes","yes"
"18",56456,"","survey-text",4,266737,"0.0-4.0",11882,"group2","A3PN17H3QT51O",754892,"{""Q0"":""Dude I'm going to need you to help cover my share of the rent this month it's only fair considering Ive covered your share in the past.""}","high_entitlement",2,"interaction","Dude I'm going to need you to help cover my share of the rent this month it's only fair considering Ive covered your share in the past.","D",1,NA,"Justification",1,0,0,1,"Repay","Female",25,"high",144,"interaction",1,0,"D","no","yes"
"19",52218,"","survey-text",5,319964,"0.0-5.0",11882,"group2","A3PN17H3QT51O",754892,"{""Q0"":""Hey Karin I need you to come pick me up at the airport or send somebody to pick me up.""}","high_entitlement",4,"relationship","Hey Karin I need you to come pick me up at the airport or send somebody to pick me up.","D",NA,NA,"",0,0,0,0,"None","Female",25,"high",95,"relationship",0,0,"D","no","no"
"20",74598,"","survey-text",7,449203,"0.0-7.0",11882,"group2","A3PN17H3QT51O",754892,"{""Q0"":""Hey man I need a bit of help moving my furniture so we have it to use around the apartment.""}","low_entitlement",1,"interaction","Hey man I need a bit of help moving my furniture so we have it to use around the apartment.","D",1,NA,"""I need""",1,0,1,0,"Reason","Female",25,"low",100,"interaction",1,0,"D","no","yes"
"21",71755,"","survey-text",9,614125,"0.0-9.0",11882,"group2","A3PN17H3QT51O",754892,"{""Q0"":""I'm having a severe allergic reaction and need to see the doctor as soon as possible.""}","high_entitlement",6,"urgency","I'm having a severe allergic reaction and need to see the doctor as soon as possible.","D",NA,NA,"",0,0,0,0,"None","Female",25,"high",94,"urgency",0,0,"D","no","no"
"22",66505,"","survey-text",2,129200,"0.0-2.0",34992,"group1","",249218,"{""Q0"":""I'm sorry to have to ask you, but I'm short on rent, and I'm afraid the landlord is going to kick me out. Could you please help me out again?""}","low_entitlement",2,"interaction","I'm sorry to have to ask you, but I'm short on rent, and I'm afraid the landlord is going to kick me out. Could you please help me out again?","M",1,NA,"",1,0,1,0,"Reason","Male",52,"low",150,"interaction",1,0,"M","no","yes"
"23",56526,"","survey-text",5,237415,"0.0-5.0",34992,"group1","",249218,"{""Q0"":""I'm sorry to bother you, but my flight just got in, and the trains have stopped running. Could you possibly pick me up?""}","low_entitlement",4,"relationship","I'm sorry to bother you, but my flight just got in, and the trains have stopped running. Could you possibly pick me up?","M",1,NA,"",1,0,1,0,"Reason","Male",52,"low",128,"relationship",1,0,"M","no","yes"
"24",24952,"","survey-text",6,263369,"0.0-6.0",34992,"group1","",249218,"{""Q0"":""I need to make an appointment for my annual physical please.""}","low_entitlement",6,"urgency","I need to make an appointment for my annual physical please.","D",NA,NA,"",0,0,0,0,"None","Male",52,"low",69,"urgency",0,0,"D","no","no"
"25",44062,"","survey-text",7,308432,"0.0-7.0",34992,"group1","",249218,"{""Q0"":""Dude, could you give me a hand with my desk, please?""}","high_entitlement",1,"interaction","Dude, could you give me a hand with my desk, please?","M",NA,NA,"",0,0,0,0,"None","Male",52,"high",61,"interaction",0,0,"M","no","no"
"26",26879,"","survey-text",8,336312,"0.0-8.0",34992,"group1","",249218,"{""Q0"":""Please send the police. Someone has broken into my house.""}","high_entitlement",5,"urgency","Please send the police. Someone has broken into my house.","D",NA,NA,"",0,0,0,0,"None","Male",52,"high",66,"urgency",0,0,"D","no","no"
"27",62678,"","survey-text",9,399992,"0.0-9.0",34992,"group1","",249218,"{""Q0"":""Please make 25 copies of the expense and quarterly reports, collate and staple them, and give them to me by 3:00 pm.""}","high_entitlement",3,"relationship","Please make 25 copies of the expense and quarterly reports, collate and staple them, and give them to me by 3:00 pm.","D",NA,NA,"Pretty detailed",0,0,0,0,"None","Male",52,"high",125,"relationship",0,0,"D","no","no"
"28",87133,"","survey-text",3,632364,"0.0-3.0",2749,"group2","",881184,"{""Q0"":""Hi I need a fireman or some kind of emergency service. My cat is stuck at the top of a tree and is afraid to come down. Thank you.""}","low_entitlement",5,"urgency","Hi I need a fireman or some kind of emergency service. My cat is stuck at the top of a tree and is afraid to come down. Thank you.","D",NA,NA,"",0,0,0,0,"None","Female",25,"low",139,"urgency",0,0,"D","no","no"
"29",417787,"","survey-text",4,1051158,"0.0-4.0",2749,"group2","",881184,"{""Q0"":""I was wondering if you could give me authorization to in order to finish compiling some documents. I personally do not have the credentials to access them. the copies I need are expense reports. ""}","low_entitlement",3,"relationship","I was wondering if you could give me authorization to in order to finish compiling some documents. I personally do not have the credentials to access them. the copies I need are expense reports. ","EM",1,1,"Mentions credentials",1,1,1,0,"Reason","Female",25,"low",204,"relationship",1,1,"EM","yes","yes"
"30",37077,"","survey-text",5,1089244,"0.0-5.0",2749,"group2","",881184,"{""Q0"":""I was just eating at a diner and the food had eggplant in it and I am very allergic. I need to be seen ASAP. ""}","high_entitlement",6,"urgency","I was just eating at a diner and the food had eggplant in it and I am very allergic. I need to be seen ASAP. ","D",1,NA,"",1,0,1,0,"Reason","Female",25,"high",118,"urgency",1,0,"D","no","yes"
"31",96897,"","survey-text",7,1199448,"0.0-7.0",2749,"group2","",881184,"{""Q0"":""Hi honey, my flight just landed and none of the trains are running because of the time. Do you mind picking me up? ""}","high_entitlement",4,"relationship","Hi honey, my flight just landed and none of the trains are running because of the time. Do you mind picking me up? ","M",1,NA,"",1,0,1,0,"Reason","Female",25,"high",124,"relationship",1,0,"M","no","yes"
"32",47695,"","survey-text",8,1248162,"0.0-8.0",2749,"group2","",881184,"{""Q0"":""Would you mind helping me move some of my stuff? I know you have done so much, but I dont really have anyone else I can ask. ""}","low_entitlement",1,"interaction","Would you mind helping me move some of my stuff? I know you have done so much, but I dont really have anyone else I can ask. ","EM",1,NA,"",1,0,1,0,"Reason","Female",25,"low",134,"interaction",1,0,"EM","no","yes"
"33",49483,"","survey-text",9,1298650,"0.0-9.0",2749,"group2","",881184,"{""Q0"":""I hate to ask, but I am short on money right now and was wondering if you would cover my half of the rent. I will get you back as soon as I get paid. ""}","high_entitlement",2,"interaction","I hate to ask, but I am short on money right now and was wondering if you would cover my half of the rent. I will get you back as soon as I get paid. ","EM",1,NA,"",1,0,1,1,"Both","Female",25,"high",159,"interaction",1,0,"EM","no","yes"
"34",6447,"","survey-text",7,260173,"0.0-7.0",63727,"group1","",724572,"{""Q0"":""\""Can I get a ride home\""""}","low_entitlement",4,"relationship","""Can I get a ride home""","M",NA,NA,"All these don't seem great",0,0,0,0,"None","Male",52,"low",34,"relationship",0,0,"M","no","no"
"35",25049,"","survey-text",2,56464,"0.0-2.0",93949,"group2","",391329,"{""Q0"":""Hey man, any chance you can spot me the rent this month? I'm short.""}","high_entitlement",2,"interaction","Hey man, any chance you can spot me the rent this month? I'm short.","M",1,NA,"",1,0,1,0,"Reason","Female",25,"high",76,"interaction",1,0,"M","no","yes"
"36",18074,"","survey-text",3,75540,"0.0-3.0",93949,"group2","",391329,"{""Q0"":""Hi, theres a cat stuck in a tree and he needs out, please send help.""}","low_entitlement",5,"urgency","Hi, theres a cat stuck in a tree and he needs out, please send help.","D",NA,NA,"",0,0,0,0,"None","Female",25,"low",77,"urgency",0,0,"D","no","no"
"37",35672,"","survey-text",4,112213,"0.0-4.0",93949,"group2","",391329,"{""Q0"":""Hi there, I need copies of the expense reports to compile my documents. Please advise.""}","low_entitlement",3,"relationship","Hi there, I need copies of the expense reports to compile my documents. Please advise.","D",NA,NA,"",0,0,0,0,"None","Female",25,"low",95,"relationship",0,0,"D","no","no"
"38",24195,"","survey-text",6,151646,"0.0-6.0",93949,"group2","",391329,"{""Q0"":""Any chance would could help me move?""}","low_entitlement",1,"interaction","Any chance would could help me move?","M",NA,NA,"",0,0,0,0,"None","Female",25,"low",45,"interaction",0,0,"M","no","no"
"39",11382,"","survey-text",7,164029,"0.0-7.0",93949,"group2","",391329,"{""Q0"":""Hi babe, can I get a ride home?""}","high_entitlement",4,"relationship","Hi babe, can I get a ride home?","M",NA,NA,"",0,0,0,0,"None","Female",25,"high",40,"relationship",0,0,"M","no","no"
"40",16298,"","survey-text",9,190640,"0.0-9.0",93949,"group2","",391329,"{""Q0"":""I'm having an alergic reaction to egg plant please help em""}","high_entitlement",6,"urgency","I'm having an alergic reaction to egg plant please help em","D",NA,NA,"",0,0,0,0,"None","Female",25,"high",67,"urgency",0,0,"D","no","no"
"41",28641,"","survey-text",2,38473,"0.0-2.0",15859,"group1","",78335,"{""Q0"":""\""Hello I would like to make an appointment for an annual physical with doctor (mydoctor)\""""}","low_entitlement",6,"urgency","""Hello I would like to make an appointment for an annual physical with doctor (mydoctor)""","D",NA,NA,"",0,0,0,0,"None","Male",52,"low",100,"urgency",0,0,"D","no","no"
"42",26250,"","survey-text",3,65727,"0.0-3.0",15859,"group1","",78335,"{""Q0"":""\""Would you be able to help me to move my desk...my back is killing me\""""}","high_entitlement",1,"interaction","""Would you be able to help me to move my desk...my back is killing me""","EM",1,NA,"",1,0,1,0,"Reason","Male",52,"high",81,"interaction",1,0,"EM","no","yes"
"43",18357,"","survey-text",5,98493,"0.0-5.0",15859,"group1","",78335,"{""Q0"":""\""I think there's a burglar in my house...please send help!\""""}","high_entitlement",5,"urgency","""I think there's a burglar in my house...please send help!""","D",NA,NA,"",0,0,0,0,"None","Male",52,"high",70,"urgency",0,0,"D","no","no"
"44",27280,"","survey-text",6,126774,"0.0-6.0",15859,"group1","",78335,"{""Q0"":""\""Would you be able to spot me a few hundred until my payday...the rent is due and I'll be kicked out otherwise\""""}","low_entitlement",2,"interaction","""Would you be able to spot me a few hundred until my payday...the rent is due and I'll be kicked out otherwise""","EM",NA,NA,"",0,0,0,0,"None","Male",52,"low",122,"interaction",0,0,"EM","no","no"
"45",20698,"","survey-text",7,148474,"0.0-7.0",15859,"group1","",78335,"{""Q0"":""\""Hi, would you be able to pick me up at the airport...I'd be grateful!\""""}","low_entitlement",4,"relationship","""Hi, would you be able to pick me up at the airport...I'd be grateful!""","EM",NA,NA,"",0,0,0,0,"None","Male",52,"low",82,"relationship",0,0,"EM","no","no"
"46",23801,"","survey-text",9,186323,"0.0-9.0",15859,"group1","",78335,"{""Q0"":""\""Could you please find copies of the quarterly and expense reports and have them on my desk ASAP?\""""}","high_entitlement",3,"relationship","""Could you please find copies of the quarterly and expense reports and have them on my desk ASAP?""","M",NA,NA,"",0,0,0,0,"None","Male",52,"high",109,"relationship",0,0,"M","no","no"
"47",25876,"","survey-text",3,77495,"0.0-3.0",56340,"group2","",774203,"{""Q0"":""Hi, my cat is stuck in a tree. Could you please send someone to help?""}","low_entitlement",5,"urgency","Hi, my cat is stuck in a tree. Could you please send someone to help?","M",1,NA,"",1,0,1,0,"Reason","Female",25,"low",78,"urgency",1,0,"M","no","yes"
"48",60886,"","survey-text",4,139384,"0.0-4.0",56340,"group2","",774203,"{""Q0"":""Hi, would I be able to get a copy of the expense reports for the assignment I'm working on?""}","low_entitlement",3,"relationship","Hi, would I be able to get a copy of the expense reports for the assignment I'm working on?","EM",1,NA,"",1,0,1,0,"Reason","Female",25,"low",100,"relationship",1,0,"EM","no","yes"
"49",49112,"","survey-text",6,204853,"0.0-6.0",56340,"group2","",774203,"{""Q0"":""Hi sweetie, just landed. Could you pick me up?""}","high_entitlement",4,"relationship","Hi sweetie, just landed. Could you pick me up?","M",NA,NA,"",0,0,0,0,"None","Female",25,"high",55,"relationship",0,0,"M","no","no"
"50",47098,"","survey-text",7,252960,"0.0-7.0",56340,"group2","",774203,"{""Q0"":""Hi, I'm having an allergic reaction. Could you please put the doctor on the phone?""}","high_entitlement",6,"urgency","Hi, I'm having an allergic reaction. Could you please put the doctor on the phone?","M",1,NA,"",1,0,1,0,"Reason","Female",25,"high",91,"urgency",1,0,"M","no","yes"
"51",71558,"","survey-text",8,325521,"0.0-8.0",56340,"group2","",774203,"{""Q0"":""Hey, I know you've done a lot already with the move, but I could really use some help moving my furniture. I'll take you out to dinner after.""}","low_entitlement",1,"interaction","Hey, I know you've done a lot already with the move, but I could really use some help moving my furniture. I'll take you out to dinner after.","EM",1,NA,"",1,0,1,1,"Both","Female",25,"low",150,"interaction",1,0,"EM","no","yes"
"52",44441,"","survey-text",9,370973,"0.0-9.0",56340,"group2","",774203,"{""Q0"":""Hey, I hate to ask but would you be able to lend me some money for the rent this month?""}","high_entitlement",2,"interaction","Hey, I hate to ask but would you be able to lend me some money for the rent this month?","EM",NA,NA,"",0,0,0,0,"None","Female",25,"high",96,"interaction",0,0,"EM","no","no"
"53",31524,"","survey-text",2,60928,"0.0-2.0",41552,"group2","",857091,"{""Q0"":""Can you loan me some money for rent that I can pay you back soon? ""}","high_entitlement",2,"interaction","Can you loan me some money for rent that I can pay you back soon? ","M",1,NA,"",1,0,0,1,"Repay","Female",25,"high",75,"interaction",1,0,"M","no","yes"
"54",35991,"","survey-text",4,119085,"0.0-4.0",41552,"group2","",857091,"{""Q0"":""Would you mind helping me move to a new apartment? You've been a wonderful friend and I really appreciate.""}","low_entitlement",1,"interaction","Would you mind helping me move to a new apartment? You've been a wonderful friend and I really appreciate.","EM",1,NA,"",1,0,1,0,"Reason","Female",25,"low",115,"interaction",1,0,"EM","no","yes"
"55",21754,"","survey-text",5,141854,"0.0-5.0",41552,"group2","",857091,"{""Q0"":""May I have access to the expense reports so I can complete my task?""}","low_entitlement",3,"relationship","May I have access to the expense reports so I can complete my task?","M",1,NA,"",1,0,1,0,"Reason","Female",25,"low",76,"relationship",1,0,"M","no","yes"
"56",32754,"","survey-text",6,175619,"0.0-6.0",41552,"group2","",857091,"{""Q0"":""Hello, my cat is stuck in a tree right now and I can't get her down. Can you send some help?""}","low_entitlement",5,"urgency","Hello, my cat is stuck in a tree right now and I can't get her down. Can you send some help?","M",1,NA,"""I can't get her down""",1,0,1,0,"Reason","Female",25,"low",101,"urgency",1,0,"M","no","yes"
"57",17932,"","survey-text",7,194565,"0.0-7.0",41552,"group2","",857091,"{""Q0"":""Hello sweetie, I'm in town and cannot catch a train. Can you come get me?""}","high_entitlement",4,"relationship","Hello sweetie, I'm in town and cannot catch a train. Can you come get me?","M",1,NA,"",1,0,1,0,"Reason","Female",25,"high",82,"relationship",1,0,"M","no","yes"
"58",100418,"","survey-text",2,128475,"0.0-2.0",10233,"group2","",128454,"{""Q0"":""hi, it is time to pay the rent but I am sorry to say that I don't have enough for my share this time so I was wondering if you cloud cover my share of the rent this time. ""}","high_entitlement",2,"interaction","hi, it is time to pay the rent but I am sorry to say that I don't have enough for my share this time so I was wondering if you cloud cover my share of the rent this time. ","EM",1,NA,"",1,0,1,0,"Reason","Female",25,"high",180,"interaction",1,0,"EM","no","yes"
"59",43919,"","survey-text",3,173398,"0.0-3.0",10233,"group2","",128454,"{""Q0"":""Hello my name is cathrine and my cat is stuck in a tree and she won't come down. ""}","low_entitlement",5,"urgency","Hello my name is cathrine and my cat is stuck in a tree and she won't come down. ","IS",NA,NA,"",0,0,0,0,"None","Female",25,"low",90,"urgency",0,0,"IS","no","no"
"60",94627,"","survey-text",4,269030,"0.0-4.0",10233,"group2","",128454,"{""Q0"":""I am sorry to bother you but cloud I have a copy of the companies expense report so that I can finish compiling these documents. ""}","low_entitlement",3,"relationship","I am sorry to bother you but cloud I have a copy of the companies expense report so that I can finish compiling these documents. ","M",1,1,"",1,1,1,0,"Reason","Female",25,"low",138,"relationship",1,1,"M","yes","yes"
"61",47679,"","survey-text",5,317713,"0.0-5.0",10233,"group2","",128454,"{""Q0"":""I know that you have helped out a lot so far but cloud I ask you to help move my stuff. ""}","low_entitlement",1,"interaction","I know that you have helped out a lot so far but cloud I ask you to help move my stuff. ","M",NA,1,"",0,1,0,0,"None","Female",25,"low",97,"interaction",0,1,"M","yes","no"
"62",41335,"","survey-text",7,402647,"0.0-7.0",10233,"group2","",128454,"{""Q0"":""hi honey, I am home could you come and pick me up at the airport. ""}","high_entitlement",4,"relationship","hi honey, I am home could you come and pick me up at the airport. ","M",NA,NA,"",0,0,0,0,"None","Female",25,"high",75,"relationship",0,0,"M","no","no"
"63",68370,"","survey-text",2,145380,"0.0-2.0",82767,"group1","",46748,"{""Q0"":""I need help. Somebody broke into my home and I'm hiding in the bathroom. Please get somebody here ASAP.""}","high_entitlement",5,"urgency","I need help. Somebody broke into my home and I'm hiding in the bathroom. Please get somebody here ASAP.","D",NA,NA,"",0,0,0,0,"None","Male",52,"high",112,"urgency",0,0,"D","no","no"
"64",23049,"","survey-text",3,169448,"0.0-3.0",82767,"group1","",46748,"{""Q0"":""I almost threw my back out. Please help me with this desk. Thanks.""}","high_entitlement",1,"interaction","I almost threw my back out. Please help me with this desk. Thanks.","D",1,NA,"",1,0,1,0,"Reason","Male",52,"high",75,"interaction",1,0,"D","no","yes"
"65",17618,"","survey-text",4,188072,"0.0-4.0",82767,"group1","",46748,"{""Q0"":""Please make copies of the reports.""}","high_entitlement",3,"relationship","Please make copies of the reports.","D",NA,NA,"",0,0,0,0,"None","Male",52,"high",43,"relationship",0,0,"D","no","no"
"66",8962,"","survey-text",6,211735,"0.0-6.0",82767,"group1","",46748,"{""Q0"":""I would like to see the doctor please.""}","low_entitlement",6,"urgency","I would like to see the doctor please.","D",NA,NA,"",0,0,0,0,"None","Male",52,"low",47,"urgency",0,0,"D","no","no"
"67",19752,"","survey-text",8,248208,"0.0-8.0",82767,"group1","",46748,"{""Q0"":""I need more money and I promise to give a little bit back afterwards.""}","low_entitlement",2,"interaction","I need more money and I promise to give a little bit back afterwards.","D",NA,NA,"",0,0,0,0,"None","Male",52,"low",78,"interaction",0,0,"D","no","no"
"68",52291,"","survey-text",9,301506,"0.0-9.0",82767,"group1","",46748,"{""Q0"":""I need a place for the night. Could you let me in?""}","low_entitlement",4,"relationship","I need a place for the night. Could you let me in?","M",1,NA,"",1,0,1,0,"Reason","Male",52,"low",59,"relationship",1,0,"M","no","yes"
"69",46237,"","survey-text",2,59590,"0.0-2.0",43857,"group1","",516593,"{""Q0"":""Could you lend me a quick hand with moving my desk since I helped you out earlier?""}","high_entitlement",1,"interaction","Could you lend me a quick hand with moving my desk since I helped you out earlier?","M",1,NA,"Explains how they helped before",1,0,1,0,"Reason","Male",52,"high",91,"interaction",1,0,"M","no","yes"
"70",31217,"","survey-text",6,155341,"0.0-6.0",43857,"group1","",516593,"{""Q0"":""I'm sorry to bother, but is there anyway you could pick me up from the airport and give me a ride home? I'll throw you gas money.""}","low_entitlement",4,"relationship","I'm sorry to bother, but is there anyway you could pick me up from the airport and give me a ride home? I'll throw you gas money.","EM",1,NA,"",1,0,0,1,"Repay","Male",52,"low",138,"relationship",1,0,"EM","no","yes"
"71",38318,"","survey-text",7,194660,"0.0-7.0",43857,"group1","",516593,"{""Q0"":""Hi, I need to schedule my yearly appointment with Dr. ###### please.""}","low_entitlement",6,"urgency","Hi, I need to schedule my yearly appointment with Dr. ###### please.","D",NA,NA,"",0,0,0,0,"None","Male",52,"low",77,"urgency",0,0,"D","no","no"
"72",54512,"","survey-text",8,250173,"0.0-8.0",43857,"group1","",516593,"{""Q0"":""Could you please locate copies of the expense and quarterly reports for me? I need to get them to the investors and I'm currently overloaded. ""}","high_entitlement",3,"relationship","Could you please locate copies of the expense and quarterly reports for me? I need to get them to the investors and I'm currently overloaded. ","M",1,NA,"",1,0,1,0,"Reason","Male",52,"high",151,"relationship",1,0,"M","no","yes"
"73",170234,"","survey-text",9,421409,"0.0-9.0",43857,"group1","",516593,"{""Q0"":""Hey I'd hate to ask again, but is there anyway you could spot me another loan? I'll pay you back as soon as I can.""}","low_entitlement",2,"interaction","Hey I'd hate to ask again, but is there anyway you could spot me another loan? I'll pay you back as soon as I can.","EM",1,NA,"",1,0,0,1,"Repay","Male",52,"low",123,"interaction",1,0,"EM","no","yes"
"74",38917,"","survey-text",3,159288,"0.0-3.0",91013,"group1","",294599,"{""Q0"":""Can you help me move my desk into my bedroom?""}","high_entitlement",1,"interaction","Can you help me move my desk into my bedroom?","M",NA,NA,"",0,0,0,0,"None","Male",52,"high",54,"interaction",0,0,"M","no","no"
"75",26276,"","survey-text",5,197311,"0.0-5.0",91013,"group1","",294599,"{""Q0"":""Can I schedule an appointment with the doctor for my annual physical?""}","low_entitlement",6,"urgency","Can I schedule an appointment with the doctor for my annual physical?","M",NA,NA,"",0,0,0,0,"None","Male",52,"low",78,"urgency",0,0,"M","no","no"
"76",48487,"","survey-text",6,246800,"0.0-6.0",91013,"group1","",294599,"{""Q0"":""I'm sorry to ask for more money, but my landlord is getting demanding. Can you please lend me more money so I can pay the rent?""}","low_entitlement",2,"interaction","I'm sorry to ask for more money, but my landlord is getting demanding. Can you please lend me more money so I can pay the rent?","M",1,NA,"",1,0,1,0,"Reason","Male",52,"low",136,"interaction",1,0,"M","no","yes"
"77",34652,"","survey-text",7,282454,"0.0-7.0",91013,"group1","",294599,"{""Q0"":""Could you please make copies of the expense and quarterly reports for our investors?""}","high_entitlement",3,"relationship","Could you please make copies of the expense and quarterly reports for our investors?","M",NA,NA,"",0,0,0,0,"None","Male",52,"high",93,"relationship",0,0,"M","no","no"
"78",31855,"","survey-text",8,315310,"0.0-8.0",91013,"group1","",294599,"{""Q0"":""I think someone is breaking in to our house. Can you help me?""}","high_entitlement",5,"urgency","I think someone is breaking in to our house. Can you help me?","M",1,NA,"",1,0,1,0,"Reason","Male",52,"high",70,"urgency",1,0,"M","no","yes"
"79",99520,"","survey-text",9,415831,"0.0-9.0",91013,"group1","",294599,"{""Q0"":""I know it's late and I'm I hate to ask you, but I just landed in town and all the trains have stopped running. Could you drive me to my hotel from the airport?""}","low_entitlement",4,"relationship","I know it's late and I'm I hate to ask you, but I just landed in town and all the trains have stopped running. Could you drive me to my hotel from the airport?","M",1,NA,"",1,0,1,0,"Reason","Male",52,"low",168,"relationship",1,0,"M","no","yes"
"80",60767,"","survey-text",2,145990,"0.0-2.0",93211,"group2","",961202,"{""Q0"":""Can I get the copies of company's latest expenses reports?""}","low_entitlement",3,"relationship","Can I get the copies of company's latest expenses reports?","M",NA,NA,"",0,0,0,0,"None","Female",25,"low",67,"relationship",0,0,"M","no","no"
"81",38795,"","survey-text",3,185789,"0.0-3.0",93211,"group2","",961202,"{""Q0"":""Can you come and pick me up at Airport since it's raining hard?""}","high_entitlement",4,"relationship","Can you come and pick me up at Airport since it's raining hard?","M",1,NA,"""Since it's raining hard""",1,0,1,0,"Reason","Female",25,"high",72,"relationship",1,0,"M","no","yes"
"82",73385,"","survey-text",4,260178,"0.0-4.0",93211,"group2","",961202,"{""Q0"":""Can you help me in carrying my furniture? I would be grateful.""}","low_entitlement",1,"interaction","Can you help me in carrying my furniture? I would be grateful.","M",NA,NA,"",0,0,0,0,"None","Female",25,"low",71,"interaction",0,0,"M","no","no"
"83",74995,"","survey-text",5,336176,"0.0-5.0",93211,"group2","",961202,"{""Q0"":""Can I have an appointment with Doctor immediately as I am having trouble breathing due to allergy related to food?""}","high_entitlement",6,"urgency","Can I have an appointment with Doctor immediately as I am having trouble breathing due to allergy related to food?","M",1,NA,"",1,0,1,0,"Reason","Female",25,"high",123,"urgency",1,0,"M","no","yes"
"84",25374,"","survey-text",7,385728,"0.0-7.0",93211,"group2","",961202,"{""Q0"":""My cat has climbed a tree and is not coming down. Can you help me out?""}","low_entitlement",5,"urgency","My cat has climbed a tree and is not coming down. Can you help me out?","M",NA,NA,"",0,0,0,0,"None","Female",25,"low",79,"urgency",0,0,"M","no","no"
"85",28517,"","survey-text",8,415250,"0.0-8.0",93211,"group2","",961202,"{""Q0"":""Can you help me out with this month's rent?""}","high_entitlement",2,"interaction","Can you help me out with this month's rent?","M",NA,NA,"",0,0,0,0,"None","Female",25,"high",52,"interaction",0,0,"M","no","no"
"86",24398,"","survey-text",2,87074,"0.0-2.0",11600,"group2","",712735,"{""Q0"":""Hey, could you help me out this one time? I don't have the money on me right now and I'll gladly help you again in the future if needed.""}","high_entitlement",2,"interaction","Hey, could you help me out this one time? I don't have the money on me right now and I'll gladly help you again in the future if needed.","M",1,NA,"",1,0,0,1,"Repay","Female",25,"high",145,"interaction",1,0,"M","no","yes"
"87",25242,"","survey-text",5,157326,"0.0-5.0",11600,"group2","",712735,"{""Q0"":""I'm having trouble breathing after eating eggplants, could I see if I'm allergic to such?""}","high_entitlement",6,"urgency","I'm having trouble breathing after eating eggplants, could I see if I'm allergic to such?","M",NA,NA,"",0,0,0,0,"None","Female",25,"high",98,"urgency",0,0,"M","no","no"
"88",13097,"","survey-text",6,171426,"0.0-6.0",11600,"group2","",712735,"{""Q0"":""My cat went up a tree and I'm very worried that he'll fall, could someone assist me?""}","low_entitlement",5,"urgency","My cat went up a tree and I'm very worried that he'll fall, could someone assist me?","M",1,NA,"",1,0,1,0,"Reason","Female",25,"low",93,"urgency",1,0,"M","no","yes"
"89",12034,"","survey-text",7,184463,"0.0-7.0",11600,"group2","",712735,"{""Q0"":""Could you pick me up to come home?""}","high_entitlement",4,"relationship","Could you pick me up to come home?","M",NA,NA,"",0,0,0,0,"None","Female",25,"high",43,"relationship",0,0,"M","no","no"
"90",14158,"","survey-text",9,207447,"0.0-9.0",11600,"group2","",712735,"{""Q0"":""Could you copy some documents that I don't have access to?""}","low_entitlement",3,"relationship","Could you copy some documents that I don't have access to?","M",NA,NA,"",0,0,0,0,"None","Female",25,"low",67,"relationship",0,0,"M","no","no"
"91",61579,"","survey-text",2,108884,"0.0-2.0",23737,"group1","",197120,"{""Q0"":""Hey man, I know it's late but my flight just got in and if I don't get a ride I'll be stuck here all night. I'd really owe you one if you could swing by and pick me up.""}","low_entitlement",4,"relationship","Hey man, I know it's late but my flight just got in and if I don't get a ride I'll be stuck here all night. I'd really owe you one if you could swing by and pick me up.","EM",1,1,"""I know it's late""",1,1,1,1,"Both","Male",52,"low",177,"relationship",1,1,"EM","yes","yes"
"92",44878,"","survey-text",4,187166,"0.0-4.0",23737,"group1","",197120,"{""Q0"":""Hey man, I've just about wrecked my back, could you take one end of my desk?""}","high_entitlement",1,"interaction","Hey man, I've just about wrecked my back, could you take one end of my desk?","M",1,NA,"",1,0,1,0,"Reason","Male",52,"high",85,"interaction",1,0,"M","no","yes"
"93",51012,"","survey-text",5,239181,"0.0-5.0",23737,"group1","",197120,"{""Q0"":""Look, I know I already owe you, but the Landlord is breathing down my neck. Could I get enough to cover me this month before I start paying you back?""}","low_entitlement",2,"interaction","Look, I know I already owe you, but the Landlord is breathing down my neck. Could I get enough to cover me this month before I start paying you back?","M",1,NA,"",1,0,1,1,"Both","Male",52,"low",158,"interaction",1,0,"M","no","yes"
"94",42213,"","survey-text",6,282396,"0.0-6.0",23737,"group1","",197120,"{""Q0"":""Hi, I'd like to make an appointment for a physical. Could I come in next week?""}","low_entitlement",6,"urgency","Hi, I'd like to make an appointment for a physical. Could I come in next week?","M",NA,NA,"",0,0,0,0,"None","Male",52,"low",87,"urgency",0,0,"M","no","no"
"95",25366,"","survey-text",8,334093,"0.0-8.0",23737,"group1","",197120,"{""Q0"":""Could I get copies of the quarterly reports please?""}","high_entitlement",3,"relationship","Could I get copies of the quarterly reports please?","M",NA,NA,"",0,0,0,0,"None","Male",52,"high",60,"relationship",0,0,"M","no","no"
"96",30350,"","survey-text",9,365445,"0.0-9.0",23737,"group1","",197120,"{""Q0"":""I need help. There's someone in my house. ""}","high_entitlement",5,"urgency","I need help. There's someone in my house. ","D",NA,NA,"",0,0,0,0,"None","Male",52,"high",51,"urgency",0,0,"D","no","no"
"97",68301,"","survey-text",2,95248,"0.0-2.0",66118,"group2","A1153ZIEQX0ZJ8",428165,"{""Q0"":""Hey, do you mind helping me move some furniture? I have more than, I though I did.""}","low_entitlement",1,"interaction","Hey, do you mind helping me move some furniture? I have more than, I though I did.","EM",NA,NA,"",0,0,0,0,"None","Female",25,"low",91,"interaction",0,0,"EM","no","no"
"98",49621,"","survey-text",3,145876,"0.0-3.0",66118,"group2","A1153ZIEQX0ZJ8",428165,"{""Q0"":""I think, I may eaten something, I am allergic to. Is there any way, I can see a doctor as soon as possible?""}","high_entitlement",6,"urgency","I think, I may eaten something, I am allergic to. Is there any way, I can see a doctor as soon as possible?","EM",1,NA,"",1,0,1,0,"Reason","Female",25,"high",116,"urgency",1,0,"EM","no","yes"
"99",28617,"","survey-text",5,192618,"0.0-5.0",66118,"group2","A1153ZIEQX0ZJ8",428165,"{""Q0"":""Hi. My cat is on top of a tree, and I can't get it down. Can you send someone to retrieve my cat?""}","low_entitlement",5,"urgency","Hi. My cat is on top of a tree, and I can't get it down. Can you send someone to retrieve my cat?","M",1,NA,"",1,0,1,0,"Reason","Female",25,"low",106,"urgency",1,0,"M","no","yes"
"100",29326,"","survey-text",6,222955,"0.0-6.0",66118,"group2","A1153ZIEQX0ZJ8",428165,"{""Q0"":""Hey, sweetheart, my train stopped running. Can you pick me up from the train station?""}","high_entitlement",4,"relationship","Hey, sweetheart, my train stopped running. Can you pick me up from the train station?","M",1,NA,"",1,0,1,0,"Reason","Female",25,"high",94,"relationship",1,0,"M","no","yes"
"101",34531,"","survey-text",7,258493,"0.0-7.0",66118,"group2","A1153ZIEQX0ZJ8",428165,"{""Q0"":""I'm having trouble paying rent for this month. Do you think, you can help me, like I have helped you in the past?""}","high_entitlement",2,"interaction","I'm having trouble paying rent for this month. Do you think, you can help me, like I have helped you in the past?","EM",1,NA,"",1,0,1,1,"Both","Female",25,"high",122,"interaction",1,0,"EM","no","yes"
"102",24172,"","survey-text",8,283674,"0.0-8.0",66118,"group2","A1153ZIEQX0ZJ8",428165,"{""Q0"":""I need authorization on some documents, but I don't have the code.""}","low_entitlement",3,"relationship","I need authorization on some documents, but I don't have the code.","D",1,NA,"",1,0,1,0,"Reason","Female",25,"low",75,"relationship",1,0,"D","no","yes"
"103",30505,"","survey-text",2,58362,"0.0-2.0",45629,"group2","",521137,"{""Q0"":""could you front me my half of the rent?""}","high_entitlement",2,"interaction","could you front me my half of the rent?","M",NA,NA,"",0,0,0,0,"None","Female",25,"high",48,"interaction",0,0,"M","no","no"
"104",283774,"","survey-text",3,343139,"0.0-3.0",45629,"group2","",521137,"{""Q0"":""can you help me out?""}","low_entitlement",1,"interaction","can you help me out?","M",NA,NA,"",0,0,0,0,"None","Female",25,"low",29,"interaction",0,0,"M","no","no"
"105",29725,"","survey-text",6,407962,"0.0-6.0",45629,"group2","",521137,"{""Q0"":""can you come get me baby?""}","high_entitlement",4,"relationship","can you come get me baby?","M",NA,NA,"",0,0,0,0,"None","Female",25,"high",34,"relationship",0,0,"M","no","no"
"106",30741,"","survey-text",7,439705,"0.0-7.0",45629,"group2","",521137,"{""Q0"":""can i please have copes of the expense reports?""}","low_entitlement",3,"relationship","can i please have copes of the expense reports?","M",NA,NA,"",0,0,0,0,"None","Female",25,"low",56,"relationship",0,0,"M","no","no"
"107",15550,"","survey-text",8,456257,"0.0-8.0",45629,"group2","",521137,"{""Q0"":""i need to see a doctor!""}","high_entitlement",6,"urgency","i need to see a doctor!","D",NA,NA,"",0,0,0,0,"None","Female",25,"high",32,"urgency",0,0,"D","no","no"
"108",29974,"","survey-text",9,487233,"0.0-9.0",45629,"group2","",521137,"{""Q0"":""can you please send someone to help me get my cat out of the tree""}","low_entitlement",5,"urgency","can you please send someone to help me get my cat out of the tree","M",NA,NA,"",0,0,0,0,"None","Female",25,"low",74,"urgency",0,0,"M","no","no"
"109",29021,"","survey-text",2,75773,"0.0-2.0",1392,"group1","",602783,"{""Q0"":""Hi, I'd like to schedule an appointment with Dr. X.""}","low_entitlement",6,"urgency","Hi, I'd like to schedule an appointment with Dr. X.","D",NA,NA,"",0,0,0,0,"None","Male",52,"low",60,"urgency",0,0,"D","no","no"
"110",39777,"","survey-text",3,116551,"0.0-3.0",1392,"group1","",602783,"{""Q0"":""Phew! Now I just need your help for this last piece of furniture.""}","high_entitlement",1,"interaction","Phew! Now I just need your help for this last piece of furniture.","D",NA,NA,"",0,0,0,0,"None","Male",52,"high",74,"interaction",0,0,"D","no","no"
"111",92667,"","survey-text",5,283712,"0.0-5.0",1392,"group1","",602783,"{""Q0"":""Hi J. I'm really sorry to call you so late but I'm in a bit of a pickle. My flight just landed and I'm stuck in town because the trains have stopped running. I was wondering if you would know a decent place where I could stay tonight?""}","low_entitlement",4,"relationship","Hi J. I'm really sorry to call you so late but I'm in a bit of a pickle. My flight just landed and I'm stuck in town because the trains have stopped running. I was wondering if you would know a decent place where I could stay tonight?","EM",1,NA,"",1,0,1,0,"Reason","Male",52,"low",243,"relationship",1,0,"EM","no","yes"
"112",119928,"","survey-text",6,404644,"0.0-6.0",1392,"group1","",602783,"{""Q0"":""I'm really sorry to add to your workload but we're in a bit of a rush here and I really need copies of the expense and quarterly reports for the investors meeting. Do you think you could get that out for me?""}","high_entitlement",3,"relationship","I'm really sorry to add to your workload but we're in a bit of a rush here and I really need copies of the expense and quarterly reports for the investors meeting. Do you think you could get that out for me?","EM",1,NA,"",1,0,1,0,"Reason","Male",52,"high",216,"relationship",1,0,"EM","no","yes"
"113",88436,"","survey-text",7,494087,"0.0-7.0",1392,"group1","",602783,"{""Q0"":""I know it's not the first time I ask and I really feel bad about it, but I don't have enough for the rent right now. Do you think you could cover for me and I'll pay back everything starting this week. Maybe we could do installments?""}","low_entitlement",2,"interaction","I know it's not the first time I ask and I really feel bad about it, but I don't have enough for the rent right now. Do you think you could cover for me and I'll pay back everything starting this week. Maybe we could do installments?","EM",1,NA,"Offers repayment",1,0,1,1,"Both","Male",52,"low",242,"interaction",1,0,"EM","no","yes"
"114",47548,"","survey-text",3,110831,"0.0-3.0",36443,"group2","",577183,"{""Q0"":""It would be super awesome if you could keep up your great work and help me move my furniture into my new apartment. It is so heavy for just me to carry by myself.""}","low_entitlement",1,"interaction","It would be super awesome if you could keep up your great work and help me move my furniture into my new apartment. It is so heavy for just me to carry by myself.","EM",1,NA,"",1,0,1,0,"Reason","Female",25,"low",171,"interaction",1,0,"EM","no","yes"
"115",31805,"","survey-text",4,143639,"0.0-4.0",36443,"group2","",577183,"{""Q0"":""Hello- I need to know what to do for an food allergy reaction that I am having due to eating eggplant.""}","high_entitlement",6,"urgency","Hello- I need to know what to do for an food allergy reaction that I am having due to eating eggplant.","D",NA,NA,"",0,0,0,0,"None","Female",25,"high",111,"urgency",0,0,"D","no","no"
"116",31217,"","survey-text",5,175859,"0.0-5.0",36443,"group2","",577183,"{""Q0"":""Hey sweetie. I just got off the plane and no train is running because it is so late. Can you come and get me?""}","high_entitlement",4,"relationship","Hey sweetie. I just got off the plane and no train is running because it is so late. Can you come and get me?","M",1,NA,"",1,0,1,0,"Reason","Female",25,"high",118,"relationship",1,0,"M","no","yes"
"117",53089,"","survey-text",6,229951,"0.0-6.0",36443,"group2","",577183,"{""Q0"":""Hi- Is there a way I can get help getting my cat out of a tree next to my house? Im worried she is going to get hurt and I cannot get her!""}","low_entitlement",5,"urgency","Hi- Is there a way I can get help getting my cat out of a tree next to my house? Im worried she is going to get hurt and I cannot get her!","EM",1,NA,"",1,0,1,0,"Reason","Female",25,"low",147,"urgency",1,0,"EM","no","yes"
"118",42806,"","survey-text",8,299319,"0.0-8.0",36443,"group2","",577183,"{""Q0"":""I'm still finishing the project of compiling documents for you but I need some copies of the expense reports too, can you grant me access to get these?""}","low_entitlement",3,"relationship","I'm still finishing the project of compiling documents for you but I need some copies of the expense reports too, can you grant me access to get these?","M",1,NA,"",1,0,1,0,"Reason","Female",25,"low",160,"relationship",1,0,"M","no","yes"
"119",23989,"","survey-text",9,324310,"0.0-9.0",36443,"group2","",577183,"{""Q0"":""Can you hook me up on what I still owe on rent until I get paid next week? You owe me!""}","high_entitlement",2,"interaction","Can you hook me up on what I still owe on rent until I get paid next week? You owe me!","M",1,NA,"Justifies (""You owe me"")",1,0,1,1,"Both","Female",25,"high",95,"interaction",1,0,"M","no","yes"
"120",51803,"","survey-text",2,82431,"0.0-2.0",64740,"group2","",802490,"{""Q0"":""Hey, I'm really sorry to have to ask you this, but do you think there's any way you might be able to help me move a few of my things? I know you're already done a lot to help and I really appreciate it, but I could still really use a hand.""}","low_entitlement",1,"interaction","Hey, I'm really sorry to have to ask you this, but do you think there's any way you might be able to help me move a few of my things? I know you're already done a lot to help and I really appreciate it, but I could still really use a hand.","EM",1,NA,"",1,0,1,0,"Reason","Female",25,"low",248,"interaction",1,0,"EM","no","yes"
"121",35611,"","survey-text",4,136069,"0.0-4.0",64740,"group2","",802490,"{""Q0"":""Hi, I have a problem with my cat. He's climbed up a tree and I just cannot get him down. Is there any way you guys could help me?""}","low_entitlement",5,"urgency","Hi, I have a problem with my cat. He's climbed up a tree and I just cannot get him down. Is there any way you guys could help me?","EM",1,NA,"",1,0,1,0,"Reason","Female",25,"low",138,"urgency",1,0,"EM","no","yes"
"122",35259,"","survey-text",5,172329,"0.0-5.0",64740,"group2","",802490,"{""Q0"":""Hi, I'm having a severe allergic reaction, could I please speak with Mr. X?""}","high_entitlement",6,"urgency","Hi, I'm having a severe allergic reaction, could I please speak with Mr. X?","M",1,NA,"",1,0,1,0,"Reason","Female",25,"high",84,"urgency",1,0,"M","no","yes"
"123",12380,"","survey-text",6,185717,"0.0-6.0",64740,"group2","",802490,"{""Q0"":""Hey could you please come pick me up?""}","high_entitlement",4,"relationship","Hey could you please come pick me up?","M",NA,NA,"",0,0,0,0,"None","Female",25,"high",46,"relationship",0,0,"M","no","no"
"124",20553,"","survey-text",8,220197,"0.0-8.0",64740,"group2","",802490,"{""Q0"":""Hey, do you think you might be able to spot me for the rent?""}","high_entitlement",2,"interaction","Hey, do you think you might be able to spot me for the rent?","M",NA,NA,"",0,0,0,0,"None","Female",25,"high",69,"interaction",0,0,"M","no","no"
"125",31865,"","survey-text",9,253077,"0.0-9.0",64740,"group2","",802490,"{""Q0"":""Could I please have a copy of the documents? I need them in order to compile the expense reports.""}","low_entitlement",3,"relationship","Could I please have a copy of the documents? I need them in order to compile the expense reports.","M",1,NA,"",1,0,1,0,"Reason","Female",25,"low",106,"relationship",1,0,"M","no","yes"
"126",22375,"","survey-text",3,83171,"0.0-3.0",59507,"group1","",328856,"{""Q0"":""Get me the copies of expenses and quarterly reports.""}","high_entitlement",3,"relationship","Get me the copies of expenses and quarterly reports.","D",NA,NA,"",0,0,0,0,"None","Male",52,"high",61,"relationship",0,0,"D","no","no"
"127",28072,"","survey-text",4,112246,"0.0-4.0",59507,"group1","",328856,"{""Q0"":""Someone has broken into my house, send the police urgently ""}","high_entitlement",5,"urgency","Someone has broken into my house, send the police urgently ","D",NA,NA,"",0,0,0,0,"None","Male",52,"high",68,"urgency",0,0,"D","no","no"
"128",27767,"","survey-text",5,141015,"0.0-5.0",59507,"group1","",328856,"{""Q0"":""I know I didn't help you much, but can you help me move the desk into my room?""}","high_entitlement",1,"interaction","I know I didn't help you much, but can you help me move the desk into my room?","M",NA,NA,"Complex: ""I know I didn't help you much—",0,0,0,0,"None","Male",52,"high",87,"interaction",0,0,"M","no","no"
"129",25376,"","survey-text",7,178669,"0.0-7.0",59507,"group1","",328856,"{""Q0"":""I would like to book an appointment for my annual check up""}","low_entitlement",6,"urgency","I would like to book an appointment for my annual check up","D",NA,NA,"",0,0,0,0,"None","Male",52,"low",67,"urgency",0,0,"D","no","no"
"130",40602,"","survey-text",8,220273,"0.0-8.0",59507,"group1","",328856,"{""Q0"":""Can you borrow me more cash, i really need to pay the rent""}","low_entitlement",2,"interaction","Can you borrow me more cash, i really need to pay the rent","M",NA,NA,"",0,0,0,0,"None","Male",52,"low",67,"interaction",0,0,"M","no","no"
"131",130910,"","survey-text",9,352185,"0.0-9.0",59507,"group1","",328856,"{""Q0"":""Sorry to call you so late, but there's no trains available, is it possible that you could give me a ride? I don't know anyone else in town.""}","low_entitlement",4,"relationship","Sorry to call you so late, but there's no trains available, is it possible that you could give me a ride? I don't know anyone else in town.","EM",1,NA,"",1,0,1,0,"Reason","Male",52,"low",148,"relationship",1,0,"EM","no","yes"
"132",71245,"","survey-text",3,165489,"0.0-3.0",49665,"group1","",958968,"{""Q0"":""Roommate, I know I've borrowed from you a ton and all.  I'm just in a bit of a pickle here at the moment and I won't have a place to live if I can't pay rent.  I just need a bit more.  I swear I'll pay you back asap!  Please can you help?""}","low_entitlement",2,"interaction","Roommate, I know I've borrowed from you a ton and all.  I'm just in a bit of a pickle here at the moment and I won't have a place to live if I can't pay rent.  I just need a bit more.  I swear I'll pay you back asap!  Please can you help?","M",1,NA,"",1,0,1,1,"Both","Male",52,"low",247,"interaction",1,0,"M","no","yes"
"133",76706,"","survey-text",4,243209,"0.0-4.0",49665,"group1","",958968,"{""Q0"":""Hi, I'd like to set up an appointment to see the doctor please for my annual physical.  Can you help me with that please?  Thanks.""}","low_entitlement",6,"urgency","Hi, I'd like to set up an appointment to see the doctor please for my annual physical.  Can you help me with that please?  Thanks.","M",1,NA,"",1,0,1,0,"Reason","Male",52,"low",139,"urgency",1,0,"M","no","yes"
"134",59026,"","survey-text",5,303240,"0.0-5.0",49665,"group1","",958968,"{""Q0"":""Miss secretary, I'm running really short on time here.  I could really use your help in getting the expense/quarterly reports asap please on my desk.  Sorry for the short notice.""}","high_entitlement",3,"relationship","Miss secretary, I'm running really short on time here.  I could really use your help in getting the expense/quarterly reports asap please on my desk.  Sorry for the short notice.","M",1,NA,"",1,0,1,0,"Reason","Male",52,"high",187,"relationship",1,0,"M","no","yes"
"135",53268,"","survey-text",6,357511,"0.0-6.0",49665,"group1","",958968,"{""Q0"":""Hi coworker, I just got in and it's like a dead town here.  I don't know how I'll get home, is there any way I could get a ride somehow?  I'm real sorry...""}","low_entitlement",4,"relationship","Hi coworker, I just got in and it's like a dead town here.  I don't know how I'll get home, is there any way I could get a ride somehow?  I'm real sorry...","EM",1,1,"",1,1,1,0,"Reason","Male",52,"low",164,"relationship",1,1,"EM","yes","yes"
"136",39870,"","survey-text",8,418226,"0.0-8.0",49665,"group1","",958968,"{""Q0"":""Hey colleague, I still got to move my desk after all this work.  Any chance I could get some help please?""}","high_entitlement",1,"interaction","Hey colleague, I still got to move my desk after all this work.  Any chance I could get some help please?","EM",1,NA,"",1,0,1,0,"Reason","Male",52,"high",114,"interaction",1,0,"EM","no","yes"
"137",41020,"","survey-text",9,460257,"0.0-9.0",49665,"group1","",958968,"{""Q0"":""Hi operator, yeah, I think there's someone in the house, I just heard a crash.  Could you send someone quick please, I'm scared!""}","high_entitlement",5,"urgency","Hi operator, yeah, I think there's someone in the house, I just heard a crash.  Could you send someone quick please, I'm scared!","M",1,NA,"",1,0,1,0,"Reason","Male",52,"high",137,"urgency",1,0,"M","no","yes"
"138",40662,"","survey-text",2,78200,"0.0-2.0",38517,"group2","",47847,"{""Q0"":""Can I speak to the doctor because I think I'm having an allergic reaction""}","high_entitlement",6,"urgency","Can I speak to the doctor because I think I'm having an allergic reaction","M",1,NA,"",1,0,1,0,"Reason","Female",25,"high",82,"urgency",1,0,"M","no","yes"
"139",36628,"","survey-text",3,115830,"0.0-3.0",38517,"group2","",47847,"{""Q0"":""My cat is stuck at the top of a tree. Is there any way someone could get him down?""}","low_entitlement",5,"urgency","My cat is stuck at the top of a tree. Is there any way someone could get him down?","EM",1,NA,"",1,0,1,0,"Reason","Female",25,"low",91,"urgency",1,0,"EM","no","yes"
"140",83536,"","survey-text",5,221600,"0.0-5.0",38517,"group2","",47847,"{""Q0"":""Can you come pick me up?""}","high_entitlement",4,"relationship","Can you come pick me up?","M",NA,NA,"",0,0,0,0,"None","Female",25,"high",33,"relationship",0,0,"M","no","no"
"141",29500,"","survey-text",6,252103,"0.0-6.0",38517,"group2","",47847,"{""Q0"":""Do you mind covering my rent since I can't this month?""}","high_entitlement",2,"interaction","Do you mind covering my rent since I can't this month?","EM",NA,NA,"",0,0,0,0,"None","Female",25,"high",63,"interaction",0,0,"EM","no","no"
"142",25348,"","survey-text",8,309540,"0.0-8.0",38517,"group2","",47847,"{""Q0"":""Do you mind helping me move my stuff? I can pay you.""}","low_entitlement",1,"interaction","Do you mind helping me move my stuff? I can pay you.","EM",1,NA,"",1,0,0,1,"Repay","Female",25,"low",61,"interaction",1,0,"EM","no","yes"
"143",73267,"","survey-text",9,383807,"0.0-9.0",38517,"group2","",47847,"{""Q0"":""I need copies of the expense reports""}","low_entitlement",3,"relationship","I need copies of the expense reports","D",NA,NA,"",0,0,0,0,"None","Female",25,"low",45,"relationship",0,0,"D","no","no"
"144",9883,"","survey-text",3,40731,"0.0-3.0",72774,"group1","",581306,"{""Q0"":""Can I get an appointment?""}","low_entitlement",6,"urgency","Can I get an appointment?","M",NA,NA,"",0,0,0,0,"None","Male",52,"low",34,"urgency",0,0,"M","no","no"
"145",8399,"","survey-text",5,61565,"0.0-5.0",72774,"group1","",581306,"{""Q0"":""Can you help me?""}","high_entitlement",1,"interaction","Can you help me?","M",NA,NA,"",0,0,0,0,"None","Male",52,"high",25,"interaction",0,0,"M","no","no"
"146",8930,"","survey-text",6,71496,"0.0-6.0",72774,"group1","",581306,"{""Q0"":""Can you give me a ride home?""}","low_entitlement",4,"relationship","Can you give me a ride home?","M",NA,NA,"",0,0,0,0,"None","Male",52,"low",37,"relationship",0,0,"M","no","no"
"147",7636,"","survey-text",7,80133,"0.0-7.0",72774,"group1","",581306,"{""Q0"":""Can you loan me some money?""}","low_entitlement",2,"interaction","Can you loan me some money?","M",NA,NA,"",0,0,0,0,"None","Male",52,"low",36,"interaction",0,0,"M","no","no"
"148",12477,"","survey-text",8,93611,"0.0-8.0",72774,"group1","",581306,"{""Q0"":""Can you send someone over?""}","high_entitlement",5,"urgency","Can you send someone over?","M",NA,NA,"",0,0,0,0,"None","Male",52,"high",35,"urgency",0,0,"M","no","no"
"149",8895,"","survey-text",9,103507,"0.0-9.0",72774,"group1","",581306,"{""Q0"":""Can you send me copies?""}","high_entitlement",3,"relationship","Can you send me copies?","M",NA,NA,"",0,0,0,0,"None","Male",52,"high",32,"relationship",0,0,"M","no","no"
"150",170461,"","survey-text",2,209441,"0.0-2.0",39966,"group1","",72820,"{""Q0"":""I was wondering if I could borrow some money from you? I know I owe still, but the land lord is not going to let me pay late. ""}","low_entitlement",2,"interaction","I was wondering if I could borrow some money from you? I know I owe still, but the land lord is not going to let me pay late. ","EM",1,NA,"",1,0,1,0,"Reason","Male",52,"low",135,"interaction",1,0,"EM","no","yes"
"151",51246,"","survey-text",6,620199,"0.0-6.0",39966,"group1","",72820,"{""Q0"":""Hi, I think someone just broke into my house.Please send help""}","high_entitlement",5,"urgency","Hi, I think someone just broke into my house.Please send help","D",1,NA,"",1,0,1,0,"Reason","Male",52,"high",70,"urgency",1,0,"D","no","yes"
"152",110591,"","survey-text",7,731801,"0.0-7.0",39966,"group1","",72820,"{""Q0"":""Hi, could you do me a favor,Im kinda in a tight situation with work. Could you help me with this paperwork. ""}","high_entitlement",3,"relationship","Hi, could you do me a favor,Im kinda in a tight situation with work. Could you help me with this paperwork. ","M",1,NA,"",1,0,1,0,"Reason","Male",52,"high",117,"relationship",1,0,"M","no","yes"
"153",41036,"","survey-text",8,773849,"0.0-8.0",39966,"group1","",72820,"{""Q0"":""I know your hurt,  but could you help me move this stuff in. ""}","high_entitlement",1,"interaction","I know your hurt,  but could you help me move this stuff in. ","M",NA,1,"",0,1,0,0,"None","Male",52,"high",70,"interaction",0,1,"M","yes","no"
"154",35411,"","survey-text",9,810270,"0.0-9.0",39966,"group1","",72820,"{""Q0"":""I just got off a late flight, could you come pick me up?""}","low_entitlement",4,"relationship","I just got off a late flight, could you come pick me up?","M",1,NA,"",1,0,1,0,"Reason","Male",52,"low",65,"relationship",1,0,"M","no","yes"
"155",12794,"","survey-text",3,43527,"0.0-3.0",85277,"group1","",458205,"{""Q0"":""I need to make an appointment.""}","low_entitlement",6,"urgency","I need to make an appointment.","D",NA,NA,"",0,0,0,0,"None","Male",52,"low",39,"urgency",0,0,"D","no","no"
"156",67538,"","survey-text",4,112068,"0.0-4.0",85277,"group1","",458205,"{""Q0"":""Please make copies immediately.""}","high_entitlement",3,"relationship","Please make copies immediately.","D",NA,NA,"",0,0,0,0,"None","Male",52,"high",40,"relationship",0,0,"D","no","no"
"157",10310,"","survey-text",6,130914,"0.0-6.0",85277,"group1","",458205,"{""Q0"":""I need a ride home.""}","low_entitlement",4,"relationship","I need a ride home.","D",NA,NA,"",0,0,0,0,"None","Male",52,"low",28,"relationship",0,0,"D","no","no"
"158",10879,"","survey-text",7,142802,"0.0-7.0",85277,"group1","",458205,"{""Q0"":""Can you help me with my stuff?""}","high_entitlement",1,"interaction","Can you help me with my stuff?","M",NA,NA,"",0,0,0,0,"None","Male",52,"high",39,"interaction",0,0,"M","no","no"
"159",11583,"","survey-text",8,155397,"0.0-8.0",85277,"group1","",458205,"{""Q0"":""I need to borrow some money.""}","low_entitlement",2,"interaction","I need to borrow some money.","D",NA,NA,"",0,0,0,0,"None","Male",52,"low",37,"interaction",0,0,"D","no","no"
"160",16837,"","survey-text",3,102523,"0.0-3.0",45152,"group2","",795750,"{""Q0"":""My cat is up in a tree, and I need help bringing it down.""}","low_entitlement",5,"urgency","My cat is up in a tree, and I need help bringing it down.","D",NA,NA,"",0,0,0,0,"None","Female",25,"low",66,"urgency",0,0,"D","no","no"
"161",13603,"","survey-text",4,117131,"0.0-4.0",45152,"group2","",795750,"{""Q0"":""Can you spot me for the amount that I don't have this month?""}","high_entitlement",2,"interaction","Can you spot me for the amount that I don't have this month?","M",NA,NA,"",0,0,0,0,"None","Female",25,"high",69,"interaction",0,0,"M","no","no"
"162",39706,"","survey-text",5,157840,"0.0-5.0",45152,"group2","",795750,"{""Q0"":""I need help getting access to the expense reports.""}","low_entitlement",3,"relationship","I need help getting access to the expense reports.","D",NA,NA,"",0,0,0,0,"None","Female",25,"low",59,"relationship",0,0,"D","no","no"
"163",12650,"","survey-text",7,184361,"0.0-7.0",45152,"group2","",795750,"{""Q0"":""Can you give me a ride home? The trains aren't running.""}","high_entitlement",4,"relationship","Can you give me a ride home? The trains aren't running.","M",1,NA,"",1,0,1,0,"Reason","Female",25,"high",64,"relationship",1,0,"M","no","yes"
"164",20138,"","survey-text",8,205500,"0.0-8.0",45152,"group2","",795750,"{""Q0"":""I'm having an allergic reaction. I just ate eggplant by accident. Help!""}","high_entitlement",6,"urgency","I'm having an allergic reaction. I just ate eggplant by accident. Help!","D",1,NA,"",1,0,1,0,"Reason","Female",25,"high",80,"urgency",1,0,"D","no","yes"
"165",19142,"","survey-text",9,225645,"0.0-9.0",45152,"group2","",795750,"{""Q0"":""Can you help me move some furniture? I promise I'll make it up to you.""}","low_entitlement",1,"interaction","Can you help me move some furniture? I promise I'll make it up to you.","M",1,NA,"Promise repayment",1,0,0,1,"Repay","Female",25,"low",79,"interaction",1,0,"M","no","yes"
"166",39594,"","survey-text",2,67675,"0.0-2.0",62946,"group2","",336117,"{""Q0"":""I need copies of the expense reports. ""}","low_entitlement",3,"relationship","I need copies of the expense reports. ","D",NA,NA,"",0,0,0,0,"None","Female",25,"low",47,"relationship",0,0,"D","no","no"
"167",28147,"","survey-text",3,96826,"0.0-3.0",62946,"group2","",336117,"{""Q0"":""My cat is stuck in a tree, and I don't know what to do. ""}","low_entitlement",5,"urgency","My cat is stuck in a tree, and I don't know what to do. ","IS",NA,NA,"",0,0,0,0,"None","Female",25,"low",65,"urgency",0,0,"IS","no","no"
"168",30062,"","survey-text",4,127890,"0.0-4.0",62946,"group2","",336117,"{""Q0"":""Would you mind helping me move this stuff?""}","low_entitlement",1,"interaction","Would you mind helping me move this stuff?","EM",NA,NA,"",0,0,0,0,"None","Female",25,"low",51,"interaction",0,0,"EM","no","no"
"169",33924,"","survey-text",6,185368,"0.0-6.0",62946,"group2","",336117,"{""Q0"":""I'm a little short on the rent this month, can you help me out?""}","high_entitlement",2,"interaction","I'm a little short on the rent this month, can you help me out?","M",1,NA,"",1,0,1,0,"Reason","Female",25,"high",72,"interaction",1,0,"M","no","yes"
"170",30645,"","survey-text",8,231543,"0.0-8.0",62946,"group2","",336117,"{""Q0"":""The trains have stopped running, I need you to come pick me up at the airport. ""}","high_entitlement",4,"relationship","The trains have stopped running, I need you to come pick me up at the airport. ","D",1,NA,"",1,0,1,0,"Reason","Female",25,"high",88,"relationship",1,0,"D","no","yes"
"171",48074,"","survey-text",9,280621,"0.0-9.0",62946,"group2","",336117,"{""Q0"":""I'm allergic to eggplant, and accidentally had some... now I can't breathe. Need to see the doctor asap. ""}","high_entitlement",6,"urgency","I'm allergic to eggplant, and accidentally had some... now I can't breathe. Need to see the doctor asap. ","D",1,NA,"",1,0,1,0,"Reason","Female",25,"high",114,"urgency",1,0,"D","no","yes"
"172",14454,"","survey-text",2,38137,"0.0-2.0",77798,"group1","",431436,"{""Q0"":""Hello, I'd like to schedule a physical.""}","low_entitlement",6,"urgency","Hello, I'd like to schedule a physical.","D",NA,NA,"",0,0,0,0,"None","Male",52,"low",48,"urgency",0,0,"D","no","no"
"173",18793,"","survey-text",3,57939,"0.0-3.0",77798,"group1","",431436,"{""Q0"":""Hey, sorry to bother you so late. Are you doing anything? I'm stranded at the airport.""}","low_entitlement",4,"relationship","Hey, sorry to bother you so late. Are you doing anything? I'm stranded at the airport.","IS",1,1,"",1,1,0,0,"Reason","Male",52,"low",95,"relationship",1,1,"IS","yes","yes"
"174",23217,"","survey-text",4,82169,"0.0-4.0",77798,"group1","",431436,"{""Q0"":""Hey, I know I already mooched so much, but the rent is due and I can't quite make it.""}","low_entitlement",2,"interaction","Hey, I know I already mooched so much, but the rent is due and I can't quite make it.","IS",1,1,"",1,1,0,0,"Reason","Male",52,"low",94,"interaction",1,1,"IS","yes","yes"
"175",20491,"","survey-text",6,120855,"0.0-6.0",77798,"group1","",431436,"{""Q0"":""Hey [secretary name] can you make me some copies of the expense and quarterly reports?""}","high_entitlement",3,"relationship","Hey [secretary name] can you make me some copies of the expense and quarterly reports?","M",NA,NA,"",0,0,0,0,"None","Male",52,"high",95,"relationship",0,0,"M","no","no"
"176",19450,"","survey-text",9,172373,"0.0-9.0",77798,"group1","",431436,"{""Q0"":""Can you give me a hand with this stuff? My back hurts after all of that moving.""}","high_entitlement",1,"interaction","Can you give me a hand with this stuff? My back hurts after all of that moving.","M",1,NA,"",1,0,1,0,"Reason","Male",52,"high",88,"interaction",1,0,"M","no","yes"
"177",24118,"","survey-text",2,101376,"0.0-2.0",52422,"group1","",440803,"{""Q0"":""I need to schedule my annual physical""}","low_entitlement",6,"urgency","I need to schedule my annual physical","D",NA,NA,"",0,0,0,0,"None","Male",52,"low",46,"urgency",0,0,"D","no","no"
"178",21717,"","survey-text",3,124100,"0.0-3.0",52422,"group1","",440803,"{""Q0"":""Hey help me move my desk""}","high_entitlement",1,"interaction","Hey help me move my desk","D",NA,NA,"",0,0,0,0,"None","Male",52,"high",33,"interaction",0,0,"D","no","no"
"179",25576,"","survey-text",4,150680,"0.0-4.0",52422,"group1","",440803,"{""Q0"":""I hate to ask but can I borrow a couple bucks for rent?""}","low_entitlement",2,"interaction","I hate to ask but can I borrow a couple bucks for rent?","M",NA,NA,"",0,0,0,0,"None","Male",52,"low",64,"interaction",0,0,"M","no","no"
"180",25412,"","survey-text",7,274318,"0.0-7.0",52422,"group1","",440803,"{""Q0"":""My flight was late and I am stuck out here is there anyway you can help me out?""}","low_entitlement",4,"relationship","My flight was late and I am stuck out here is there anyway you can help me out?","EM",1,NA,"",1,0,1,0,"Reason","Male",52,"low",88,"relationship",1,0,"EM","no","yes"
"181",37887,"","survey-text",8,313213,"0.0-8.0",52422,"group1","",440803,"{""Q0"":""Hey I am buried in work and I need you to get those reports together for me""}","high_entitlement",3,"relationship","Hey I am buried in work and I need you to get those reports together for me","D",1,NA,"",1,0,1,0,"Reason","Male",52,"high",84,"relationship",1,0,"D","no","yes"
"182",115421,"","survey-text",3,182679,"0.0-3.0",89429,"group1","",99387,"{""Q0"":""Hey man, I know you've spotted me before but I was wondering if you could loan me some cash so I can cover this month's rent? I will pay you back as soon as I have the cash.""}","low_entitlement",2,"interaction","Hey man, I know you've spotted me before but I was wondering if you could loan me some cash so I can cover this month's rent? I will pay you back as soon as I have the cash.","EM",1,1,"",1,1,1,1,"Both","Male",52,"low",182,"interaction",1,1,"EM","yes","yes"
"183",28381,"","survey-text",4,212062,"0.0-4.0",89429,"group1","",99387,"{""Q0"":""Hey secretary, could you print me out some copies of the expense and quarterly reports for our investors? 10 copies should be good.""}","high_entitlement",3,"relationship","Hey secretary, could you print me out some copies of the expense and quarterly reports for our investors? 10 copies should be good.","M",NA,NA,"",0,0,0,0,"None","Male",52,"high",140,"relationship",0,0,"M","no","no"
"184",49740,"","survey-text",5,262805,"0.0-5.0",89429,"group1","",99387,"{""Q0"":""Hey man, I have a desk that I still need to move into my bedroom, could you lend a hand?""}","high_entitlement",1,"interaction","Hey man, I have a desk that I still need to move into my bedroom, could you lend a hand?","M",1,NA,"",1,0,1,0,"Reason","Male",52,"high",97,"interaction",1,0,"M","no","yes"
"185",33455,"","survey-text",6,297263,"0.0-6.0",89429,"group1","",99387,"{""Q0"":""Operator, there's someone downstairs. I heard a loud crash which set our alarms off. Could you send help?""}","high_entitlement",5,"urgency","Operator, there's someone downstairs. I heard a loud crash which set our alarms off. Could you send help?","M",1,NA,"",1,0,1,0,"Reason","Male",52,"high",114,"urgency",1,0,"M","no","yes"
"186",25781,"","survey-text",7,324048,"0.0-7.0",89429,"group1","",99387,"{""Q0"":""Hey man, I'm in a bad spot right now. I just flew into town but there are no trains running right now. Could you give me a lift home?""}","low_entitlement",4,"relationship","Hey man, I'm in a bad spot right now. I just flew into town but there are no trains running right now. Could you give me a lift home?","M",1,NA,"",1,0,1,0,"Reason","Male",52,"low",142,"relationship",1,0,"M","no","yes"
"187",24939,"","survey-text",9,364494,"0.0-9.0",89429,"group1","",99387,"{""Q0"":""Hi, can I set up an appointment to see Doctor X? I need to schedule my yearly physical.""}","low_entitlement",6,"urgency","Hi, can I set up an appointment to see Doctor X? I need to schedule my yearly physical.","M",1,NA,"",1,0,1,0,"Reason","Male",52,"low",96,"urgency",1,0,"M","no","yes"
"188",32422,"","survey-text",3,219741,"0.0-3.0",91125,"group2","",881746,"{""Q0"":""I'm having an allergic reaction, can I come in for an emergency?""}","high_entitlement",6,"urgency","I'm having an allergic reaction, can I come in for an emergency?","M",1,NA,"",1,0,1,0,"Reason","Female",25,"high",73,"urgency",1,0,"M","no","yes"
"189",60220,"","survey-text",4,280965,"0.0-4.0",91125,"group2","",881746,"{""Q0"":""My cat is stuck in a tree is there a service that could help me? ""}","low_entitlement",5,"urgency","My cat is stuck in a tree is there a service that could help me? ","EM",1,NA,"",1,0,1,0,"Reason","Female",25,"low",74,"urgency",1,0,"EM","no","yes"
"190",26018,"","survey-text",5,307984,"0.0-5.0",91125,"group2","",881746,"{""Q0"":""Hey I just landed could you pick me up?""}","high_entitlement",4,"relationship","Hey I just landed could you pick me up?","M",NA,NA,"",0,0,0,0,"None","Female",25,"high",48,"relationship",0,0,"M","no","no"
"191",77256,"","survey-text",6,386242,"0.0-6.0",91125,"group2","",881746,"{""Q0"":""Hey any chance you could me me with the move, I'd owe you one.""}","low_entitlement",1,"interaction","Hey any chance you could me me with the move, I'd owe you one.","EM",1,NA,"",1,0,0,1,"Repay","Female",25,"low",71,"interaction",1,0,"EM","no","yes"
"192",81414,"","survey-text",7,468660,"0.0-7.0",91125,"group2","",881746,"{""Q0"":""HI, I'm compiling the documents that you requested and need permission to access the expense reports. ""}","low_entitlement",3,"relationship","HI, I'm compiling the documents that you requested and need permission to access the expense reports. ","D",1,NA,"",1,0,1,0,"Reason","Female",25,"low",111,"relationship",1,0,"D","no","yes"
"193",26632,"","survey-text",9,514704,"0.0-9.0",91125,"group2","",881746,"{""Q0"":""Hey could you spot me for my share of the rent this month?""}","high_entitlement",2,"interaction","Hey could you spot me for my share of the rent this month?","M",NA,NA,"",0,0,0,0,"None","Female",25,"high",67,"interaction",0,0,"M","no","no"
"194",11431,"","survey-text",2,37340,"0.0-2.0",41393,"group2","A2P065E9CYMYJL",939765,"{""Q0"":""I need access to the copies please""}","low_entitlement",3,"relationship","I need access to the copies please","D",NA,NA,"",0,0,0,0,"None","Female",25,"low",43,"relationship",0,0,"D","no","no"
"195",9965,"","survey-text",4,58238,"0.0-4.0",41393,"group2","A2P065E9CYMYJL",939765,"{""Q0"":""Would you mind helping me on this""}","low_entitlement",1,"interaction","Would you mind helping me on this","EM",NA,NA,"",0,0,0,0,"None","Female",25,"low",42,"interaction",0,0,"EM","no","no"
"196",10344,"","survey-text",5,69597,"0.0-5.0",41393,"group2","A2P065E9CYMYJL",939765,"{""Q0"":""I need to see the doctor now.""}","high_entitlement",6,"urgency","I need to see the doctor now.","D",NA,NA,"",0,0,0,0,"None","Female",25,"high",38,"urgency",0,0,"D","no","no"
"197",12909,"","survey-text",6,83603,"0.0-6.0",41393,"group2","A2P065E9CYMYJL",939765,"{""Q0"":""I need help with my cat now.""}","low_entitlement",5,"urgency","I need help with my cat now.","D",NA,NA,"",0,0,0,0,"None","Female",25,"low",37,"urgency",0,0,"D","no","no"
"198",38905,"","survey-text",7,123725,"0.0-7.0",41393,"group2","A2P065E9CYMYJL",939765,"{""Q0"":""I need you to cover it this month. ""}","high_entitlement",2,"interaction","I need you to cover it this month. ","D",NA,NA,"",0,0,0,0,"None","Female",25,"high",44,"interaction",0,0,"D","no","no"
"199",11853,"","survey-text",8,136587,"0.0-8.0",41393,"group2","A2P065E9CYMYJL",939765,"{""Q0"":""Baby I need a ride home.""}","high_entitlement",4,"relationship","Baby I need a ride home.","D",NA,NA,"",0,0,0,0,"None","Female",25,"high",33,"relationship",0,0,"D","no","no"
"200",44589,"","survey-text",2,77893,"0.0-2.0",11845,"group2","",439184,"{""Q0"":""Hi, I need copies of the company expense reports in order to compile some documents. Could you please grant me access, or how would you like me to proceed?""}","low_entitlement",3,"relationship","Hi, I need copies of the company expense reports in order to compile some documents. Could you please grant me access, or how would you like me to proceed?","M",1,NA,"",1,0,1,0,"Reason","Female",25,"low",164,"relationship",1,0,"M","no","yes"
"201",30280,"","survey-text",3,109176,"0.0-3.0",11845,"group2","",439184,"{""Q0"":""Do you know anyone who can help lift furniture? I can pay some money and buy them dinner, or you if you want to help.""}","low_entitlement",1,"interaction","Do you know anyone who can help lift furniture? I can pay some money and buy them dinner, or you if you want to help.","IS",1,NA,"",1,0,0,1,"Repay","Female",25,"low",126,"interaction",1,0,"IS","no","yes"
"202",16099,"","survey-text",4,126278,"0.0-4.0",11845,"group2","",439184,"{""Q0"":""Hi, this is embarrassing but my cat is stuck at the top of a tree.""}","low_entitlement",5,"urgency","Hi, this is embarrassing but my cat is stuck at the top of a tree.","IS",NA,NA,"",0,0,0,0,"None","Female",25,"low",75,"urgency",0,0,"IS","no","no"
"203",28748,"","survey-text",6,169188,"0.0-6.0",11845,"group2","",439184,"{""Q0"":""Hey baby, can you come get me from the airport? I will make it worthwhile.""}","high_entitlement",4,"relationship","Hey baby, can you come get me from the airport? I will make it worthwhile.","M",1,NA,"",1,0,0,1,"Repay","Female",25,"high",83,"relationship",1,0,"M","no","yes"
"204",20485,"","survey-text",8,200885,"0.0-8.0",11845,"group2","",439184,"{""Q0"":""I'm having trouble breathing from an allergic reaction, can I see the doctor?""}","high_entitlement",6,"urgency","I'm having trouble breathing from an allergic reaction, can I see the doctor?","M",1,NA,"",1,0,1,0,"Reason","Female",25,"high",86,"urgency",1,0,"M","no","yes"
"205",20246,"","survey-text",9,222132,"0.0-9.0",11845,"group2","",439184,"{""Q0"":""Hey, could I borrow some money for rent this month? I'll pay you back with interest.""}","high_entitlement",2,"interaction","Hey, could I borrow some money for rent this month? I'll pay you back with interest.","M",1,NA,"",1,0,0,1,"Repay","Female",25,"high",93,"interaction",1,0,"M","no","yes"
"206",28985,"","survey-text",2,44819,"0.0-2.0",6582,"group1","",277836,"{""Q0"":""can you give me a ride home?""}","low_entitlement",4,"relationship","can you give me a ride home?","M",NA,NA,"",0,0,0,0,"None","Male",52,"low",37,"relationship",0,0,"M","no","no"
"207",7458,"","survey-text",3,53280,"0.0-3.0",6582,"group1","",277836,"{""Q0"":""I would like to make an appointment""}","low_entitlement",6,"urgency","I would like to make an appointment","D",NA,NA,"",0,0,0,0,"None","Male",52,"low",44,"urgency",0,0,"D","no","no"
"208",11913,"","survey-text",4,66193,"0.0-4.0",6582,"group1","",277836,"{""Q0"":""Yes there is someone in my house i need help""}","high_entitlement",5,"urgency","Yes there is someone in my house i need help","D",NA,NA,"",0,0,0,0,"None","Male",52,"high",53,"urgency",0,0,"D","no","no"
"209",10489,"","survey-text",5,77686,"0.0-5.0",6582,"group1","",277836,"{""Q0"":""Can i get copies of those reports""}","high_entitlement",3,"relationship","Can i get copies of those reports","M",NA,NA,"",0,0,0,0,"None","Male",52,"high",42,"relationship",0,0,"M","no","no"
"210",7063,"","survey-text",8,108616,"0.0-8.0",6582,"group1","",277836,"{""Q0"":""Can you help out with rent""}","low_entitlement",2,"interaction","Can you help out with rent","M",NA,NA,"",0,0,0,0,"None","Male",52,"low",35,"interaction",0,0,"M","no","no"
"211",11162,"","survey-text",9,120780,"0.0-9.0",6582,"group1","",277836,"{""Q0"":""Can you help with my move""}","high_entitlement",1,"interaction","Can you help with my move","M",NA,NA,"",0,0,0,0,"None","Male",52,"high",34,"interaction",0,0,"M","no","no"
"212",54839,"","survey-text",6,221190,"0.0-6.0",74756,"group1","",595239,"{""Q0"":""Hey can you help me bring this desk into my room?""}","high_entitlement",1,"interaction","Hey can you help me bring this desk into my room?","M",NA,NA,"",0,0,0,0,"None","Male",52,"high",58,"interaction",0,0,"M","no","no"
"213",20478,"","survey-text",7,242670,"0.0-7.0",74756,"group1","",595239,"{""Q0"":""Hey I know it's late but I really need a ride home, can you help?""}","low_entitlement",4,"relationship","Hey I know it's late but I really need a ride home, can you help?","M",1,NA,"",1,0,1,0,"Reason","Male",52,"low",74,"relationship",1,0,"M","no","yes"
"214",53254,"","survey-text",2,103184,"0.0-2.0",58827,"group2","",829464,"{""Q0"":""I think I'm having a reaction to something I ate. I need to come in.  ""}","high_entitlement",6,"urgency","I think I'm having a reaction to something I ate. I need to come in.  ","D",1,NA,"",1,0,1,0,"Reason","Female",25,"high",79,"urgency",1,0,"D","no","yes"
"215",34512,"","survey-text",3,138696,"0.0-3.0",58827,"group2","",829464,"{""Q0"":""I need access to the company's expense reports, can you give it to me? ""}","low_entitlement",3,"relationship","I need access to the company's expense reports, can you give it to me? ","M",1,NA,"",1,0,1,0,"Reason","Female",25,"low",80,"relationship",1,0,"M","no","yes"
"216",34424,"","survey-text",4,174120,"0.0-4.0",58827,"group2","",829464,"{""Q0"":""Can you help bring the furniture in? It's really heavy and I don't think I can do it myself. ""}","low_entitlement",1,"interaction","Can you help bring the furniture in? It's really heavy and I don't think I can do it myself. ","M",1,NA,"",1,0,1,0,"Reason","Female",25,"low",102,"interaction",1,0,"M","no","yes"
"217",25240,"","survey-text",5,200361,"0.0-5.0",58827,"group2","",829464,"{""Q0"":""Hey can you give me a ride home? ""}","high_entitlement",4,"relationship","Hey can you give me a ride home? ","M",NA,NA,"",0,0,0,0,"None","Female",25,"high",42,"relationship",0,0,"M","no","no"
"218",31479,"","survey-text",6,232841,"0.0-6.0",58827,"group2","",829464,"{""Q0"":""My cat's stuck up a tree and I can't get to it. Can you send someone? ""}","low_entitlement",5,"urgency","My cat's stuck up a tree and I can't get to it. Can you send someone? ","M",1,NA,"",1,0,1,0,"Reason","Female",25,"low",79,"urgency",1,0,"M","no","yes"
"219",38654,"","survey-text",7,272496,"0.0-7.0",58827,"group2","",829464,"{""Q0"":""Hey I'm going to need you to cover the rent this month, I'm gonna be short a bit. ""}","high_entitlement",2,"interaction","Hey I'm going to need you to cover the rent this month, I'm gonna be short a bit. ","M",1,NA,"",1,0,1,0,"Reason","Female",25,"high",91,"interaction",1,0,"M","no","yes"
"220",46539,"","survey-text",2,84386,"0.0-2.0",99586,"group2","",650908,"{""Q0"":""Greetings. Could you provide me with the company's expense reports? I need them to compile some documents.""}","low_entitlement",3,"relationship","Greetings. Could you provide me with the company's expense reports? I need them to compile some documents.","M",1,NA,"",1,0,1,0,"Reason","Female",25,"low",115,"relationship",1,0,"M","no","yes"
"221",39323,"","survey-text",3,124713,"0.0-3.0",99586,"group2","",650908,"{""Q0"":""Hey Man. I'm short on cash this month and it's going to be difficult to cover my rent. Could you possibly help cover my share this month?""}","high_entitlement",2,"interaction","Hey Man. I'm short on cash this month and it's going to be difficult to cover my rent. Could you possibly help cover my share this month?","M",1,NA,"",1,0,1,0,"Reason","Female",25,"high",146,"interaction",1,0,"M","no","yes"
"222",19822,"","survey-text",4,145537,"0.0-4.0",99586,"group2","",650908,"{""Q0"":""Hey Babe. I need you to come pick me up. All the trains have stopped running for the night.""}","high_entitlement",4,"relationship","Hey Babe. I need you to come pick me up. All the trains have stopped running for the night.","D",1,NA,"",1,0,1,0,"Reason","Female",25,"high",100,"relationship",1,0,"D","no","yes"
"223",32772,"","survey-text",5,179312,"0.0-5.0",99586,"group2","",650908,"{""Q0"":""This is a bit embarrassing but it looks like I am going to need some assistance getting my cat out of a tree. I can't get it down on my own. ""}","low_entitlement",5,"urgency","This is a bit embarrassing but it looks like I am going to need some assistance getting my cat out of a tree. I can't get it down on my own. ","EM",1,NA,"",1,0,1,0,"Reason","Female",25,"low",150,"urgency",1,0,"EM","no","yes"
"224",34692,"","survey-text",7,232976,"0.0-7.0",99586,"group2","",650908,"{""Q0"":""I'm very allergic to eggplant and I just consumed some. I need to see the doctor immediately.""}","high_entitlement",6,"urgency","I'm very allergic to eggplant and I just consumed some. I need to see the doctor immediately.","D",1,NA,"",1,0,1,0,"Reason","Female",25,"high",102,"urgency",1,0,"D","no","yes"
"225",31838,"","survey-text",8,265816,"0.0-8.0",99586,"group2","",650908,"{""Q0"":""Hey Bro. Could you help me move this stuff in? I hate to ask but it's heavy and I can't find anyone else to help me at the moment.""}","low_entitlement",1,"interaction","Hey Bro. Could you help me move this stuff in? I hate to ask but it's heavy and I can't find anyone else to help me at the moment.","M",1,NA,"",1,0,1,0,"Reason","Female",25,"low",139,"interaction",1,0,"M","no","yes"
"226",20985,"","survey-text",2,49696,"0.0-2.0",52885,"group1","",147191,"{""Q0"":""I would like to make an appointment.""}","low_entitlement",6,"urgency","I would like to make an appointment.","D",NA,NA,"",0,0,0,0,"None","Male",52,"low",45,"urgency",0,0,"D","no","no"
"227",30649,"","survey-text",3,81375,"0.0-3.0",52885,"group1","",147191,"{""Q0"":""Could you please help me move my desk into my room?""}","high_entitlement",1,"interaction","Could you please help me move my desk into my room?","M",NA,NA,"",0,0,0,0,"None","Male",52,"high",60,"interaction",0,0,"M","no","no"
"228",76084,"","survey-text",5,177239,"0.0-5.0",52885,"group1","",147191,"{""Q0"":""I know I still owe you money, but could you please help me pay for my rent?""}","low_entitlement",2,"interaction","I know I still owe you money, but could you please help me pay for my rent?","M",1,NA,"",1,0,1,0,"Reason","Male",52,"low",84,"interaction",1,0,"M","no","yes"
"229",73364,"","survey-text",7,265615,"0.0-7.0",52885,"group1","",147191,"{""Q0"":""I need help! Someone has broken into my house. ""}","high_entitlement",5,"urgency","I need help! Someone has broken into my house. ","D",NA,NA,"",0,0,0,0,"None","Male",52,"high",56,"urgency",0,0,"D","no","no"
"230",22844,"","survey-text",8,289464,"0.0-8.0",52885,"group1","",147191,"{""Q0"":""Is there any way you could please give me a ride home?""}","low_entitlement",4,"relationship","Is there any way you could please give me a ride home?","EM",NA,NA,"",0,0,0,0,"None","Male",52,"low",63,"relationship",0,0,"EM","no","no"
"231",25667,"","survey-text",9,316135,"0.0-9.0",52885,"group1","",147191,"{""Q0"":""Could you please make these copies for me?""}","high_entitlement",3,"relationship","Could you please make these copies for me?","M",NA,NA,"",0,0,0,0,"None","Male",52,"high",51,"relationship",0,0,"M","no","no"
"232",63994,"","survey-text",2,96479,"0.0-2.0",79560,"group2","",235145,"{""Q0"":""This is an emergency. I just ate something I am highly allergic to. Please let me speak with the doctor. I need help now.""}","high_entitlement",6,"urgency","This is an emergency. I just ate something I am highly allergic to. Please let me speak with the doctor. I need help now.","D",1,NA,"",1,0,1,0,"Reason","Female",25,"high",130,"urgency",1,0,"D","no","yes"
"233",38635,"","survey-text",4,163192,"0.0-4.0",79560,"group2","",235145,"{""Q0"":""Hey baby my plane just landed. Could you come pick me up please?""}","high_entitlement",4,"relationship","Hey baby my plane just landed. Could you come pick me up please?","M",NA,NA,"",0,0,0,0,"None","Female",25,"high",73,"relationship",0,0,"M","no","no"
"234",65102,"","survey-text",5,229300,"0.0-5.0",79560,"group2","",235145,"{""Q0"":""Hey you have been a great help but could I ask you for one more favor? I could really use the help to move all of my furniture. Really appreciate it.""}","low_entitlement",1,"interaction","Hey you have been a great help but could I ask you for one more favor? I could really use the help to move all of my furniture. Really appreciate it.","M",1,NA,"",1,0,1,0,"Reason","Female",25,"low",158,"interaction",1,0,"M","no","yes"
"235",31993,"","survey-text",6,262295,"0.0-6.0",79560,"group2","",235145,"{""Q0"":""Guys I am having money trouble for this month. Do you think you can spot me this time?""}","high_entitlement",2,"interaction","Guys I am having money trouble for this month. Do you think you can spot me this time?","EM",1,NA,"",1,0,1,0,"Reason","Female",25,"high",95,"interaction",1,0,"EM","no","yes"
"236",56912,"","survey-text",8,360150,"0.0-8.0",79560,"group2","",235145,"{""Q0"":""Jack I need the expense reports for the documents I am working on. Do you think you can get it for me please?""}","low_entitlement",3,"relationship","Jack I need the expense reports for the documents I am working on. Do you think you can get it for me please?","EM",1,NA,"",1,0,1,0,"Reason","Female",25,"low",118,"relationship",1,0,"EM","no","yes"
"237",29403,"","survey-text",9,390555,"0.0-9.0",79560,"group2","",235145,"{""Q0"":""Hi, my cat can't get down from a tree. Could you send someone to help?""}","low_entitlement",5,"urgency","Hi, my cat can't get down from a tree. Could you send someone to help?","M",NA,NA,"",0,0,0,0,"None","Female",25,"low",79,"urgency",0,0,"M","no","no"
"238",21531,"","survey-text",2,82238,"0.0-2.0",6531,"group2","",918839,"{""Q0"":""Hey, I'm short on rent this month. Can you help me out?""}","high_entitlement",2,"interaction","Hey, I'm short on rent this month. Can you help me out?","M",1,NA,"",1,0,1,0,"Reason","Female",25,"high",64,"interaction",1,0,"M","no","yes"
"239",45523,"","survey-text",4,141747,"0.0-4.0",6531,"group2","",918839,"{""Q0"":""Hi, I have an urgent situation. I accidentally had some eggplant and I'm allergic - can I speak to the doctor ASAP?""}","high_entitlement",6,"urgency","Hi, I have an urgent situation. I accidentally had some eggplant and I'm allergic - can I speak to the doctor ASAP?","M",1,NA,"",1,0,1,0,"Reason","Female",25,"high",124,"urgency",1,0,"M","no","yes"
"240",22911,"","survey-text",5,165666,"0.0-5.0",6531,"group2","",918839,"{""Q0"":""Yes, I have a situation. My cat is stuck in a tree. Can you help me?""}","low_entitlement",5,"urgency","Yes, I have a situation. My cat is stuck in a tree. Can you help me?","M",1,NA,"",1,0,1,0,"Reason","Female",25,"low",77,"urgency",1,0,"M","no","yes"
"241",35212,"","survey-text",6,201886,"0.0-6.0",6531,"group2","",918839,"{""Q0"":""Hi Honey. Sorry to bother you, but all the trains have stopped running. Can you pick me up? I owe you one. ""}","high_entitlement",4,"relationship","Hi Honey. Sorry to bother you, but all the trains have stopped running. Can you pick me up? I owe you one. ","M",1,NA,"",1,0,1,1,"Both","Female",25,"high",116,"relationship",1,0,"M","no","yes"
"242",36460,"","survey-text",7,239353,"0.0-7.0",6531,"group2","",918839,"{""Q0"":""Can you help with the larger items? I know that they are heavy and I can't lift them alone. ""}","low_entitlement",1,"interaction","Can you help with the larger items? I know that they are heavy and I can't lift them alone. ","M",1,NA,"",1,0,1,0,"Reason","Female",25,"low",101,"interaction",1,0,"M","no","yes"
"243",39569,"","survey-text",8,279935,"0.0-8.0",6531,"group2","",918839,"{""Q0"":""Do I need special permission for these reports? I need to copy them. ""}","low_entitlement",3,"relationship","Do I need special permission for these reports? I need to copy them. ","EM",1,NA,"",1,0,1,0,"Reason","Female",25,"low",78,"relationship",1,0,"EM","no","yes"
"244",25240,"","survey-text",2,36232,"0.0-2.0",23266,"group2","",219492,"{""Q0"":""Hi, my cat is in the tree.  Can you send assistance?""}","low_entitlement",5,"urgency","Hi, my cat is in the tree.  Can you send assistance?","M",1,NA,"",1,0,1,0,"Reason","Female",25,"low",61,"urgency",1,0,"M","no","yes"
"245",13877,"","survey-text",5,70528,"0.0-5.0",23266,"group2","",219492,"{""Q0"":""Can you help me with moving the furniture?""}","low_entitlement",1,"interaction","Can you help me with moving the furniture?","M",NA,NA,"",0,0,0,0,"None","Female",25,"low",51,"interaction",0,0,"M","no","no"
"246",9821,"","survey-text",6,81351,"0.0-6.0",23266,"group2","",219492,"{""Q0"":""Can I borrow some cash for rent.""}","high_entitlement",2,"interaction","Can I borrow some cash for rent.","M",NA,NA,"",0,0,0,0,"None","Female",25,"high",41,"interaction",0,0,"M","no","no"
"247",20301,"","survey-text",7,102656,"0.0-7.0",23266,"group2","",219492,"{""Q0"":""I'm allergic to egglplant and can't breathe.  Please get the doctor.""}","high_entitlement",6,"urgency","I'm allergic to egglplant and can't breathe.  Please get the doctor.","D",1,NA,"",1,0,1,0,"Reason","Female",25,"high",77,"urgency",1,0,"D","no","yes"
"248",17621,"","survey-text",8,121279,"0.0-8.0",23266,"group2","",219492,"{""Q0"":""Can you give me a ride as the trains have stopped running?""}","high_entitlement",4,"relationship","Can you give me a ride as the trains have stopped running?","M",1,NA,"",1,0,1,0,"Reason","Female",25,"high",67,"relationship",1,0,"M","no","yes"
"249",24716,"","survey-text",9,146998,"0.0-9.0",23266,"group2","",219492,"{""Q0"":""Can I get copies of the company's expense reports?""}","low_entitlement",3,"relationship","Can I get copies of the company's expense reports?","M",NA,NA,"",0,0,0,0,"None","Female",25,"low",59,"relationship",0,0,"M","no","no"
"250",51163,"","survey-text",2,74204,"0.0-2.0",86201,"group1","",732059,"{""Q0"":""There's someone in my house. Send help to (my address), and please hurry.""}","high_entitlement",5,"urgency","There's someone in my house. Send help to (my address), and please hurry.","D",1,NA,"",1,0,1,0,"Reason","Male",52,"high",82,"urgency",1,0,"D","no","yes"
"251",28562,"","survey-text",4,116444,"0.0-4.0",86201,"group1","",732059,"{""Q0"":""I hate having to bug you, but could you give me a ride home?""}","low_entitlement",4,"relationship","I hate having to bug you, but could you give me a ride home?","M",NA,1,"Is this correct analysis of contingencies?",0,1,0,0,"None","Male",52,"low",69,"relationship",0,1,"M","yes","no"
"252",35232,"","survey-text",5,152678,"0.0-5.0",86201,"group1","",732059,"{""Q0"":""If you have time, could you get my the copies of the expense and quarterly reports for our investors? ""}","high_entitlement",3,"relationship","If you have time, could you get my the copies of the expense and quarterly reports for our investors? ","M",NA,1,"""if you have time""",0,1,0,0,"None","Male",52,"high",111,"relationship",0,1,"M","yes","no"
"253",27888,"","survey-text",6,181567,"0.0-6.0",86201,"group1","",732059,"{""Q0"":""I would like to set up an appointment for a physical.""}","low_entitlement",6,"urgency","I would like to set up an appointment for a physical.","D",NA,NA,"",0,0,0,0,"None","Male",52,"low",62,"urgency",0,0,"D","no","no"
"254",37991,"","survey-text",7,220559,"0.0-7.0",86201,"group1","",732059,"{""Q0"":""I know I've already borrowed quite a bit, but could you spot me a little bit more for rent?""}","low_entitlement",2,"interaction","I know I've already borrowed quite a bit, but could you spot me a little bit more for rent?","M",NA,1,"",0,1,0,0,"None","Male",52,"low",100,"interaction",0,1,"M","yes","no"
"255",36331,"","survey-text",8,257891,"0.0-8.0",86201,"group1","",732059,"{""Q0"":""Could you help me move my desk back into the bedroom? I seemed to have hurt my back.""}","high_entitlement",1,"interaction","Could you help me move my desk back into the bedroom? I seemed to have hurt my back.","M",1,NA,"",1,0,1,0,"Reason","Male",52,"high",93,"interaction",1,0,"M","no","yes"
"256",22197,"","survey-text",4,118032,"0.0-4.0",55368,"group1","AGDJB8B8CDZ71",850786,"{""Q0"":""can you please make (however many copies) of these""}","high_entitlement",3,"relationship","can you please make (however many copies) of these","M",NA,NA,"",0,0,0,0,"None","Male",52,"high",59,"relationship",0,0,"M","no","no"
"257",30336,"","survey-text",5,149381,"0.0-5.0",55368,"group1","AGDJB8B8CDZ71",850786,"{""Q0"":""do you think i could please borrow (however amount), ill be able to pay you back (at specific time)""}","low_entitlement",2,"interaction","do you think i could please borrow (however amount), ill be able to pay you back (at specific time)","EM",1,NA,"",1,0,0,1,"Repay","Male",52,"low",108,"interaction",1,0,"EM","no","yes"
"258",36858,"","survey-text",6,187255,"0.0-6.0",55368,"group1","AGDJB8B8CDZ71",850786,"{""Q0"":""if you have a chance could you please help me move this desk in my room""}","high_entitlement",1,"interaction","if you have a chance could you please help me move this desk in my room","M",NA,1,"""if you have a chance""",0,1,0,0,"None","Male",52,"high",80,"interaction",0,1,"M","yes","no"
"259",12287,"","survey-text",8,208791,"0.0-8.0",55368,"group1","AGDJB8B8CDZ71",850786,"{""Q0"":""hi id like to make an appointment""}","low_entitlement",6,"urgency","hi id like to make an appointment","D",NA,NA,"",0,0,0,0,"None","Male",52,"low",42,"urgency",0,0,"D","no","no"
"260",21237,"","survey-text",9,231039,"0.0-9.0",55368,"group1","AGDJB8B8CDZ71",850786,"{""Q0"":""sorry to bother you, do you think its possible you could pick me up""}","low_entitlement",4,"relationship","sorry to bother you, do you think its possible you could pick me up","EM",NA,NA,"",0,0,0,0,"None","Male",52,"low",76,"relationship",0,0,"EM","no","no"
"261",65964,"","survey-text",2,86546,"0.0-2.0",63609,"group1","",434142,"{""Q0"":""Hey, do you know someone else who can help us with this desk? My back can't take much more. ""}","high_entitlement",1,"interaction","Hey, do you know someone else who can help us with this desk? My back can't take much more. ","EM",1,NA,"",1,0,1,0,"Reason","Male",52,"high",101,"interaction",1,0,"EM","no","yes"
"262",17895,"","survey-text",3,105444,"0.0-3.0",63609,"group1","",434142,"{""Q0"":""Hi, I'd like to schedule an appointment with Doctor XYZ. ""}","low_entitlement",6,"urgency","Hi, I'd like to schedule an appointment with Doctor XYZ. ","D",NA,NA,"",0,0,0,0,"None","Male",52,"low",66,"urgency",0,0,"D","no","no"
"263",26604,"","survey-text",5,146683,"0.0-5.0",63609,"group1","",434142,"{""Q0"":""Hello?! There's someone in my house, can you please send the police right away!!""}","high_entitlement",5,"urgency","Hello?! There's someone in my house, can you please send the police right away!!","M",1,NA,"",1,0,1,0,"Reason","Male",52,"high",89,"urgency",1,0,"M","no","yes"
"264",44617,"","survey-text",6,192309,"0.0-6.0",63609,"group1","",434142,"{""Q0"":""I'm gonna need copies of the quarterly reports. Please try to have them on my desk asap. ""}","high_entitlement",3,"relationship","I'm gonna need copies of the quarterly reports. Please try to have them on my desk asap. ","D",NA,NA,"",0,0,0,0,"None","Male",52,"high",98,"relationship",0,0,"D","no","no"
"265",42166,"","survey-text",7,235483,"0.0-7.0",63609,"group1","",434142,"{""Q0"":""I know I've been borrowing a lot but I have a job that will start soon. Can you please lend me this just one last time? I'll be sure to make it up to you. ""}","low_entitlement",2,"interaction","I know I've been borrowing a lot but I have a job that will start soon. Can you please lend me this just one last time? I'll be sure to make it up to you. ","M",1,1,"Is this correct analysis of contingencies?",1,1,0,1,"Repay","Male",52,"low",164,"interaction",1,1,"M","yes","yes"
"266",40288,"","survey-text",9,286362,"0.0-9.0",63609,"group1","",434142,"{""Q0"":""Hi, so sorry to bother you. My flight got in really late and now the trains aren't running. Would you be able to pick me up?""}","low_entitlement",4,"relationship","Hi, so sorry to bother you. My flight got in really late and now the trains aren't running. Would you be able to pick me up?","EM",1,NA,"",1,0,1,0,"Reason","Male",52,"low",133,"relationship",1,0,"EM","no","yes"
"267",79411,"","survey-text",2,136998,"0.0-2.0",61228,"group2","",195884,"{""Q0"":""You asked me to compile the documents but I don't have access to the necessary expense reports. Can you please grant me the access.""}","low_entitlement",3,"relationship","You asked me to compile the documents but I don't have access to the necessary expense reports. Can you please grant me the access.","M",1,NA,"",1,0,1,0,"Reason","Female",25,"low",140,"relationship",1,0,"M","no","yes"
"268",21731,"","survey-text",3,159733,"0.0-3.0",61228,"group2","",195884,"{""Q0"":""Hey, can you come pick me up from the train station.""}","high_entitlement",4,"relationship","Hey, can you come pick me up from the train station.","M",NA,NA,"",0,0,0,0,"None","Female",25,"high",61,"relationship",0,0,"M","no","no"
"269",32821,"","survey-text",4,193557,"0.0-4.0",61228,"group2","",195884,"{""Q0"":""Hey, it's been a bad month for once. Can you cover me this one time. Thank you.""}","high_entitlement",2,"interaction","Hey, it's been a bad month for once. Can you cover me this one time. Thank you.","M",1,NA,"",1,0,1,0,"Reason","Female",25,"high",88,"interaction",1,0,"M","no","yes"
