stimNum,stimType,rt,trial_type,trial_index,time_elapsed,internal_node_id,subject,group,answer,Formatting,Gender,Age,Code.SB,condition,situation,formatting,mean_entitlement,sd_entitlement,mean_imposition,sd_imposition,mean_power,sd_power,mean_distance,sd_distance
1,high_entitlement,62782,survey-text,6,279207,0.0-6.0,72957,group1,I'm worried about my forehead  it's bleeding could you please give me a lift to hospital.,M,Male,40,,high,non_institutional,M,5.666666667,2.107063433,3.085106383,2.272996368,5.208333333,1.687984236,2.520833333,1.989221844
1,high_entitlement,71732,survey-text,3,193178,0.0-3.0,3382,group1,I had a bad fall and I'm bleeding a lot. Would you mind taking me to the hospital to get it checked out?,M,Male,27,,high,non_institutional,M,5.666666667,2.107063433,3.085106383,2.272996368,5.208333333,1.687984236,2.520833333,1.989221844
1,high_entitlement,57151,survey-text,3,277925,0.0-3.0,20158,group1,will you please take me to the emergency room?,M,Male,47,M,high,non_institutional,M,5.666666667,2.107063433,3.085106383,2.272996368,5.208333333,1.687984236,2.520833333,1.989221844
1,high_entitlement,83264,survey-text,4,397615,0.0-4.0,62299,group1,"I think I need to go to the emergency room, because all this blood loss is going to make me weak.",D,Female,55,,high,non_institutional,D,5.666666667,2.107063433,3.085106383,2.272996368,5.208333333,1.687984236,2.520833333,1.989221844
1,high_entitlement,116174,survey-text,3,204312,0.0-3.0,6795,group1,"Let assume my roommate name as MAX.max i lost my blood so we go to emergency room quickly. get the vehicle drive fast man.",D,Male,25,,high,non_institutional,D,5.666666667,2.107063433,3.085106383,2.272996368,5.208333333,1.687984236,2.520833333,1.989221844
1,high_entitlement,28988,survey-text,8,230211,0.0-8.0,76092,group1,"hey dude, i really need to go to the ER, can you drive me",M,Male,53,,high,non_institutional,M,5.666666667,2.107063433,3.085106383,2.272996368,5.208333333,1.687984236,2.520833333,1.989221844
1,high_entitlement,21062,survey-text,7,207839,0.0-7.0,10498,group1,We need to go to the ER!,D,Male,48,IS,high,non_institutional,D,5.666666667,2.107063433,3.085106383,2.272996368,5.208333333,1.687984236,2.520833333,1.989221844
1,high_entitlement,28250,survey-text,5,214670,0.0-5.0,21894,group1,Can you get me to the hospital? ,M,Female,44,M,high,non_institutional,M,5.666666667,2.107063433,3.085106383,2.272996368,5.208333333,1.687984236,2.520833333,1.989221844
1,high_entitlement,29082,survey-text,2,128621,0.0-2.0,35325,group1,"Hey I need a ride to the ER, now!",D,Male,41,,high,non_institutional,D,5.666666667,2.107063433,3.085106383,2.272996368,5.208333333,1.687984236,2.520833333,1.989221844
1,high_entitlement,58228,survey-text,8,968625,0.0-8.0,21490,group1,"hi dude, i have problem here. i want your help. please can you go for emergency room? ",M,Male,27,M,high,non_institutional,M,5.666666667,2.107063433,3.085106383,2.272996368,5.208333333,1.687984236,2.520833333,1.989221844
1,high_entitlement,38889,survey-text,7,289580,0.0-7.0,82556,group1,I need you to take me to the ER right away.,D,Male,29,,high,non_institutional,D,5.666666667,2.107063433,3.085106383,2.272996368,5.208333333,1.687984236,2.520833333,1.989221844
1,high_entitlement,13968,survey-text,6,172504,0.0-6.0,50623,group1,"""I think I need to go to the hospital now.""",D,Female,36,,high,non_institutional,D,5.666666667,2.107063433,3.085106383,2.272996368,5.208333333,1.687984236,2.520833333,1.989221844
1,high_entitlement,55805,survey-text,9,510154,0.0-9.0,91014,group1,"Can you run me over to the ER, I don't think its very safe to drive with a head injury?",M,Female,32,,high,non_institutional,M,5.666666667,2.107063433,3.085106383,2.272996368,5.208333333,1.687984236,2.520833333,1.989221844
1,high_entitlement,58990,survey-text,5,246703,0.0-5.0,32506,group1,I don't feel so well... I think I need to see a doctor ASAP. Please take me to the nearest hospital.,D,Male,27,D,high,non_institutional,D,5.666666667,2.107063433,3.085106383,2.272996368,5.208333333,1.687984236,2.520833333,1.989221844
1,high_entitlement,13326,survey-text,9,141542,0.0-9.0,20310,group1,i need a ride to the hospital,D,Male,33,IS,high,non_institutional,D,5.666666667,2.107063433,3.085106383,2.272996368,5.208333333,1.687984236,2.520833333,1.989221844
1,high_entitlement,19823,survey-text,3,52029,0.0-3.0,17117,group1,Can you give me a ride to the hospital?,M,Male,31,M,high,non_institutional,M,5.666666667,2.107063433,3.085106383,2.272996368,5.208333333,1.687984236,2.520833333,1.989221844
1,high_entitlement,18181,survey-text,9,167078,0.0-9.0,60475,group1,"Dude, this is bad, could you drive me to the ER?",M,Male,43,,high,non_institutional,M,5.666666667,2.107063433,3.085106383,2.272996368,5.208333333,1.687984236,2.520833333,1.989221844
1,high_entitlement,35122,survey-text,7,230039,0.0-7.0,37109,group1,I think you should take me to the hospital to have someone take a look at my head.,D,Female,33,,high,non_institutional,D,5.666666667,2.107063433,3.085106383,2.272996368,5.208333333,1.687984236,2.520833333,1.989221844
1,high_entitlement,27878,survey-text,7,226721,0.0-7.0,32427,group1,"holy shit man, i need to go to the ER. right now let's go ",D,Male,48,D,high,non_institutional,D,5.666666667,2.107063433,3.085106383,2.272996368,5.208333333,1.687984236,2.520833333,1.989221844
1,high_entitlement,28928,survey-text,4,98339,0.0-4.0,36913,group1,can you please help me?,M,Male,30,,high,non_institutional,M,5.666666667,2.107063433,3.085106383,2.272996368,5.208333333,1.687984236,2.520833333,1.989221844
1,high_entitlement,46588,survey-text,5,238601,0.0-5.0,16264,group1,"I would ask, ""Please just get me out of here and take me to the ER.  I'm bleeding pretty bad.""",D,Male,30,M,high,non_institutional,D,5.666666667,2.107063433,3.085106383,2.272996368,5.208333333,1.687984236,2.520833333,1.989221844
1,high_entitlement,51259,survey-text,5,565698,0.0-5.0,3558,group1,"buddy, hurry!",D,Male,28,,high,non_institutional,D,5.666666667,2.107063433,3.085106383,2.272996368,5.208333333,1.687984236,2.520833333,1.989221844
1,high_entitlement,72965,survey-text,7,353983,0.0-7.0,34216,group1,Please take me immediately to emergency room as am scared of blood loss,D,Female,29,,high,non_institutional,D,5.666666667,2.107063433,3.085106383,2.272996368,5.208333333,1.687984236,2.520833333,1.989221844
1,high_entitlement,51327,survey-text,5,187145,0.0-5.0,27048,group1,I am serverely bleeding so can you please take me to the emergency room so I can get this gash looked at?,M,Female,42,M,high,non_institutional,M,5.666666667,2.107063433,3.085106383,2.272996368,5.208333333,1.687984236,2.520833333,1.989221844
1,high_entitlement,38313,survey-text,9,281642,0.0-9.0,24461,group1,"I think I might need to go to the emergency room, will you give me a ride.",M,Male,47,M,high,non_institutional,M,5.666666667,2.107063433,3.085106383,2.272996368,5.208333333,1.687984236,2.520833333,1.989221844
1,high_entitlement,16150,survey-text,4,121868,0.0-4.0,72843,group1,Get me to the emergency room fast!,D,Female,32,,high,non_institutional,D,5.666666667,2.107063433,3.085106383,2.272996368,5.208333333,1.687984236,2.520833333,1.989221844
1,high_entitlement,27383,survey-text,9,322103,0.0-9.0,46504,group1,I think I need to go to the hospital. ,D,Male,32,,high,non_institutional,D,5.666666667,2.107063433,3.085106383,2.272996368,5.208333333,1.687984236,2.520833333,1.989221844
1,high_entitlement,15820,survey-text,2,42297,0.0-2.0,64062,group1,Hey bud I need to go to the hospital asap. Can u take me?,M,Male,36,,high,non_institutional,M,5.666666667,2.107063433,3.085106383,2.272996368,5.208333333,1.687984236,2.520833333,1.989221844
1,high_entitlement,37413,survey-text,4,127452,0.0-4.0,18196,group1,Crap!  I am bleeding profusely!  Take me to the ER now!,D,Male,29,D,high,non_institutional,D,5.666666667,2.107063433,3.085106383,2.272996368,5.208333333,1.687984236,2.520833333,1.989221844
1,high_entitlement,93240,survey-text,4,383561,0.0-4.0,99924,group1,"please help me to go to the emergency room, i got a nasty tumble in my forehead",D,Male,43,,high,non_institutional,D,5.666666667,2.107063433,3.085106383,2.272996368,5.208333333,1.687984236,2.520833333,1.989221844
1,high_entitlement,381578,survey-text,8,978399,0.0-8.0,11719,group1,"Bro, I think I need to get an emergency treatment right now, let's go to hospital.",D,Male,32,D,high,non_institutional,D,5.666666667,2.107063433,3.085106383,2.272996368,5.208333333,1.687984236,2.520833333,1.989221844
1,high_entitlement,15180,survey-text,5,122270,0.0-5.0,19295,group1,Do you mind giving me a ride to the emergency room?,M,Female,28,EM,high,non_institutional,M,5.666666667,2.107063433,3.085106383,2.272996368,5.208333333,1.687984236,2.520833333,1.989221844
1,high_entitlement,41118,survey-text,9,625084,0.0-9.0,63746,group1,I think I should go to urgent care; do you mind giving me a ride?,M,Male,59,,high,non_institutional,M,5.666666667,2.107063433,3.085106383,2.272996368,5.208333333,1.687984236,2.520833333,1.989221844
1,high_entitlement,51018,survey-text,5,305070,0.0-5.0,61016,group1,Can you take me to the hospital? This looks really bad.,M,Male,30,,high,non_institutional,M,5.666666667,2.107063433,3.085106383,2.272996368,5.208333333,1.687984236,2.520833333,1.989221844
1,high_entitlement,54085,survey-text,7,494746,0.0-7.0,61815,group1,Will you take me the to the emergency room??..,M,Male,49,,high,non_institutional,M,5.666666667,2.107063433,3.085106383,2.272996368,5.208333333,1.687984236,2.520833333,1.989221844
1,high_entitlement,9229,survey-text,5,80617,0.0-5.0,74804,group1,Can you drive me to the ER?,M,Male,31,,high,non_institutional,M,5.666666667,2.107063433,3.085106383,2.272996368,5.208333333,1.687984236,2.520833333,1.989221844
1,low_entitlement,66152,survey-text,5,328343,0.0-5.0,44058,group2,"""Hey, are you busy right now? I have a doctor's appointment and I was wondering, if you aren't busy and you wouldn't mind, if you could give me a ride?""",W,Female,26,,low,non_institutional,W,4.698113208,1.866556946,4.188679245,2.08526519,5.339622642,1.807499295,2.452830189,2.080736165
1,low_entitlement,33414,survey-text,9,344008,0.0-9.0,59374,group2,"Hey, could you please give me a ride to the doctor? I'll fill your tank up and take you out to eat after.",M,Male,32,,low,non_institutional,M,4.698113208,1.866556946,4.188679245,2.08526519,5.339622642,1.807499295,2.452830189,2.080736165
1,low_entitlement,36997,survey-text,8,462234,0.0-8.0,6083,group2,Would you mind giving me a ride to the doctor?,M,Male,43,,low,non_institutional,M,4.698113208,1.866556946,4.188679245,2.08526519,5.339622642,1.807499295,2.452830189,2.080736165
1,low_entitlement,39968,survey-text,6,326734,0.0-6.0,5333,group2,can i have a ride dear,M,Female,30,,low,non_institutional,M,4.698113208,1.866556946,4.188679245,2.08526519,5.339622642,1.807499295,2.452830189,2.080736165
1,low_entitlement,45937,survey-text,5,187406,0.0-5.0,97848,group2,"Hey, I really need to get to the doctor now. Can you give me a ride to the doctor? I'll give you some gas money.",M,Female,35,,low,non_institutional,M,4.698113208,1.866556946,4.188679245,2.08526519,5.339622642,1.807499295,2.452830189,2.080736165
1,low_entitlement,22322,survey-text,8,322372,0.0-8.0,72733,group2,hey so i have a doctor's appointment today. can i get a ride? i'll pay you back.,M,Male,25,,low,non_institutional,M,4.698113208,1.866556946,4.188679245,2.08526519,5.339622642,1.807499295,2.452830189,2.080736165
1,low_entitlement,24950,survey-text,5,213273,0.0-5.0,3590,group2,Could you give me a ride to my doctors appointment? I can give you gas money,M,Female,47,,low,non_institutional,M,4.698113208,1.866556946,4.188679245,2.08526519,5.339622642,1.807499295,2.452830189,2.080736165
1,low_entitlement,37950,survey-text,4,240032,0.0-4.0,52915,group2,"I have a doctor's appointment that I need to get to, do you mind taking me?",M,Female,48,,low,non_institutional,M,4.698113208,1.866556946,4.188679245,2.08526519,5.339622642,1.807499295,2.452830189,2.080736165
1,low_entitlement,25148,survey-text,2,61983,0.0-2.0,94617,group2,Can you give me a ride to the doctor? I'm late for my appointment. ,M,Male,34,,low,non_institutional,M,4.698113208,1.866556946,4.188679245,2.08526519,5.339622642,1.807499295,2.452830189,2.080736165
1,low_entitlement,44473,survey-text,9,827745,0.0-9.0,79949,group2,"Hi, roommate. Could you swing me by Dr. _______ office today. I have an appointment.",M,Male,35,,low,non_institutional,M,4.698113208,1.866556946,4.188679245,2.08526519,5.339622642,1.807499295,2.452830189,2.080736165
1,low_entitlement,30817,survey-text,8,373246,0.0-8.0,28470,group2,"Hey there, could you please give me a ride to my doc appointment? I'll pay you for gas.",M,Male,39,M,low,non_institutional,M,4.698113208,1.866556946,4.188679245,2.08526519,5.339622642,1.807499295,2.452830189,2.080736165
1,low_entitlement,57032,survey-text,2,92209,0.0-2.0,3378,group2,Do you mind giving your car so that I can see my doctor?,M,Male,28,EM,low,non_institutional,M,4.698113208,1.866556946,4.188679245,2.08526519,5.339622642,1.807499295,2.452830189,2.080736165
1,low_entitlement,24588,survey-text,4,109158,0.0-4.0,28397,group2,"Tomorrow I have a doctors appointment at 2, is there any way you can take me there?",W,Male,34,EM,low,non_institutional,W,4.698113208,1.866556946,4.188679245,2.08526519,5.339622642,1.807499295,2.452830189,2.080736165
1,low_entitlement,38476,survey-text,5,222738,0.0-5.0,30463,group2,"Hi, Can I ask you a favor?  I have a doctor's appointment but I have no way to get there. Is it possible that you can transport me there?",W,Male,29,EM,low,non_institutional,W,4.698113208,1.866556946,4.188679245,2.08526519,5.339622642,1.807499295,2.452830189,2.080736165
1,low_entitlement,123707,survey-text,3,360398,0.0-3.0,21098,group2,"I have eaten something that I am very allergic to and I need to see the doctor as soon as possible, could you please take me to the doctor?",M,Male,26,M,low,non_institutional,M,4.698113208,1.866556946,4.188679245,2.08526519,5.339622642,1.807499295,2.452830189,2.080736165
1,low_entitlement,42381,survey-text,9,517419,0.0-9.0,27830,group2,"I am feeling sick, can you drop me at the doctor's place?",M,Female,37,M,low,non_institutional,M,4.698113208,1.866556946,4.188679245,2.08526519,5.339622642,1.807499295,2.452830189,2.080736165
1,low_entitlement,37295,survey-text,7,339393,0.0-7.0,51195,group2,I have a doctor's appointment that I really need to make it to. Could you possibly give me a ride?,M,Female,39,,low,non_institutional,M,4.698113208,1.866556946,4.188679245,2.08526519,5.339622642,1.807499295,2.452830189,2.080736165
1,low_entitlement,38523,survey-text,7,324245,0.0-7.0,16483,group2,"Hi, I just need to go to doctor could you drop me if u don't mind.",M,Female,28,M,low,non_institutional,M,4.698113208,1.866556946,4.188679245,2.08526519,5.339622642,1.807499295,2.452830189,2.080736165
1,low_entitlement,72269,survey-text,5,359635,0.0-5.0,65324,group2,"Hey, I need to get to the doctor and I don't have a car. Could you please give me a lift there and home?",M,Male,43,,low,non_institutional,M,4.698113208,1.866556946,4.188679245,2.08526519,5.339622642,1.807499295,2.452830189,2.080736165
1,low_entitlement,82663,survey-text,3,300234,0.0-3.0,29623,group2,"I need to visit the doctor, but there's no one to take me there. If I don't reach on time, I'll miss the appointment. Can you please give me a ride?",M,Male,29,M,low,non_institutional,M,4.698113208,1.866556946,4.188679245,2.08526519,5.339622642,1.807499295,2.452830189,2.080736165
1,low_entitlement,23750,survey-text,4,194228,0.0-4.0,27203,group2,"Hey, you think you could give me a ride to my doctor's appointment? ",W,Male,27,EM,low,non_institutional,W,4.698113208,1.866556946,4.188679245,2.08526519,5.339622642,1.807499295,2.452830189,2.080736165
1,low_entitlement,20060,survey-text,2,38832,0.0-2.0,82481,group2,"Hey, are you getting out today? Would you mind dropping taking me by the doc's office?",M,Female,30,,low,non_institutional,M,4.698113208,1.866556946,4.188679245,2.08526519,5.339622642,1.807499295,2.452830189,2.080736165
1,low_entitlement,33782,survey-text,9,681453,0.0-9.0,61890,group2,"Hey, are you busy? Would you mind taking me to my doctor's appointment?",M,Female,32,,low,non_institutional,M,4.698113208,1.866556946,4.188679245,2.08526519,5.339622642,1.807499295,2.452830189,2.080736165
1,low_entitlement,26137,survey-text,4,127007,0.0-4.0,71619,group2,Will you please take me to the doctor? I've eaten something I'm allergic to.,M,Female,43,,low,non_institutional,M,4.698113208,1.866556946,4.188679245,2.08526519,5.339622642,1.807499295,2.452830189,2.080736165
1,low_entitlement,11239,survey-text,8,157592,0.0-8.0,33002,group2,Could you drive me to the doctor's?,M,Female,27,M,low,non_institutional,M,4.698113208,1.866556946,4.188679245,2.08526519,5.339622642,1.807499295,2.452830189,2.080736165
1,low_entitlement,9701,survey-text,5,74383,0.0-5.0,81728,group2,I need a ride to the doctor,D,Male,28,,low,non_institutional,D,4.698113208,1.866556946,4.188679245,2.08526519,5.339622642,1.807499295,2.452830189,2.080736165
1,low_entitlement,55210,survey-text,2,110693,0.0-2.0,79786,group2,"Hey, can you give me a ride to me doctor's appointment?",M,Female,42,,low,non_institutional,M,4.698113208,1.866556946,4.188679245,2.08526519,5.339622642,1.807499295,2.452830189,2.080736165
1,low_entitlement,33172,survey-text,9,562434,0.0-9.0,81995,group2,"Hey, if you're not too busy, do you think you could give me a ride to my doctor's appointment?",W,Male,28,,low,non_institutional,W,4.698113208,1.866556946,4.188679245,2.08526519,5.339622642,1.807499295,2.452830189,2.080736165
1,low_entitlement,27967,survey-text,7,297858,0.0-7.0,68135,group2,Can you give me a ride to my doctor's appointment please?,M,Female,50,,low,non_institutional,M,4.698113208,1.866556946,4.188679245,2.08526519,5.339622642,1.807499295,2.452830189,2.080736165
1,low_entitlement,26011,survey-text,6,216511,0.0-6.0,28185,group2,"Hey, (room-mate's name), could you do me a favor and take me to my doctor's appointment? I'll reimburse you for gas.",M,Female,30,EM,low,non_institutional,M,4.698113208,1.866556946,4.188679245,2.08526519,5.339622642,1.807499295,2.452830189,2.080736165
1,low_entitlement,17223,survey-text,8,192421,0.0-8.0,637,group2,Hey could you please drive me to the doctor I don't have a ride.,M,Male,24,,low,non_institutional,M,4.698113208,1.866556946,4.188679245,2.08526519,5.339622642,1.807499295,2.452830189,2.080736165
1,low_entitlement,71549,survey-text,3,157949,0.0-3.0,80139,group2,Hallo Sara could you drop me to my doctor clinic because i have an appointment.,M,Male,36,,low,non_institutional,M,4.698113208,1.866556946,4.188679245,2.08526519,5.339622642,1.807499295,2.452830189,2.080736165
1,low_entitlement,31953,survey-text,8,408297,0.0-8.0,6322,group2,"Hey, could you take me to the doctor by any chance? I'll buy lunch.",M,Female,37,,low,non_institutional,M,4.698113208,1.866556946,4.188679245,2.08526519,5.339622642,1.807499295,2.452830189,2.080736165
1,low_entitlement,27342,survey-text,9,426869,0.0-9.0,70965,group2,"Could you drive me to the doctor, please.",M,Male,23,,low,non_institutional,M,4.698113208,1.866556946,4.188679245,2.08526519,5.339622642,1.807499295,2.452830189,2.080736165
2,high_entitlement,57411,survey-text,6,598384,0.0-6.0,61890,group2,Water? Where is the water?,D,Female,32,,high,non_institutional,D,5.660377358,1.818107598,3.301886792,1.90732299,5.811320755,1.5573227,2.547169811,1.886857764
2,high_entitlement,36380,survey-text,4,180514,0.0-4.0,16483,group2,please help me to get some water I am dying.,D,Female,28,D,high,non_institutional,D,5.660377358,1.818107598,3.301886792,1.90732299,5.811320755,1.5573227,2.547169811,1.886857764
2,high_entitlement,125748,survey-text,6,438753,0.0-6.0,52915,group2,"Oh my gosh, I got lost and I am so thirsty. Can I have some water, please?",M,Female,48,,high,non_institutional,M,5.660377358,1.818107598,3.301886792,1.90732299,5.811320755,1.5573227,2.547169811,1.886857764
2,high_entitlement,13009,survey-text,2,59150,0.0-2.0,33002,group2,"Get me some water, will ya?",M,Female,27,D,high,non_institutional,M,5.660377358,1.818107598,3.301886792,1.90732299,5.811320755,1.5573227,2.547169811,1.886857764
2,high_entitlement,66125,survey-text,5,498397,0.0-5.0,21098,group2,"I got lost for several hour and I am so dehydrated, could you kindly fetch me some water to drink?",M,Male,26,M,high,non_institutional,M,5.660377358,1.818107598,3.301886792,1.90732299,5.811320755,1.5573227,2.547169811,1.886857764
2,high_entitlement,20817,survey-text,9,290530,0.0-9.0,28185,group2,"(Friend's name), could you please get me some water? I am very thirsty.",M,Female,30,M,high,non_institutional,M,5.660377358,1.818107598,3.301886792,1.90732299,5.811320755,1.5573227,2.547169811,1.886857764
2,high_entitlement,15249,survey-text,5,125413,0.0-5.0,28397,group2,I NEED WATER!,D,Male,34,IS,high,non_institutional,D,5.660377358,1.818107598,3.301886792,1.90732299,5.811320755,1.5573227,2.547169811,1.886857764
2,high_entitlement,60149,survey-text,5,263114,0.0-5.0,70965,group2,"Help me, please, I need water, I'm dying.  ",D,Male,23,,high,non_institutional,D,5.660377358,1.818107598,3.301886792,1.90732299,5.811320755,1.5573227,2.547169811,1.886857764
2,high_entitlement,11580,survey-text,7,236939,0.0-7.0,97848,group2,I need water now.,D,Female,35,,high,non_institutional,D,5.660377358,1.818107598,3.301886792,1.90732299,5.811320755,1.5573227,2.547169811,1.886857764
2,high_entitlement,36139,survey-text,2,85398,0.0-2.0,80139,group2,buddy please get me water and i am very thirsty after a long walking.,D,Male,36,,high,non_institutional,D,5.660377358,1.818107598,3.301886792,1.90732299,5.811320755,1.5573227,2.547169811,1.886857764
2,high_entitlement,23780,survey-text,5,209423,0.0-5.0,72733,group2,hey man i need water asap. feeling completely dehydrated.,D,Male,25,,high,non_institutional,D,5.660377358,1.818107598,3.301886792,1.90732299,5.811320755,1.5573227,2.547169811,1.886857764
2,high_entitlement,15102,survey-text,6,229377,0.0-6.0,3590,group2,Could you please get me some water?,M,Female,47,,high,non_institutional,M,5.660377358,1.818107598,3.301886792,1.90732299,5.811320755,1.5573227,2.547169811,1.886857764
2,high_entitlement,24697,survey-text,6,323397,0.0-6.0,28470,group2,"Hurry, i'm nearly dehydrated and in dire need of water!",D,Male,39,IS,high,non_institutional,D,5.660377358,1.818107598,3.301886792,1.90732299,5.811320755,1.5573227,2.547169811,1.886857764
2,high_entitlement,30582,survey-text,6,359930,0.0-6.0,44058,group2,"""Water, please?""",D,Female,26,,high,non_institutional,D,5.660377358,1.818107598,3.301886792,1.90732299,5.811320755,1.5573227,2.547169811,1.886857764
2,high_entitlement,21479,survey-text,3,61535,0.0-3.0,82481,group2,May I please have a drink?,M,Female,30,,high,non_institutional,M,5.660377358,1.818107598,3.301886792,1.90732299,5.811320755,1.5573227,2.547169811,1.886857764
2,high_entitlement,60863,survey-text,7,441290,0.0-7.0,65324,group2,"Could you please get me some water, I have been lost in the woods and I am severely dehydrated.",M,Male,43,,high,non_institutional,M,5.660377358,1.818107598,3.301886792,1.90732299,5.811320755,1.5573227,2.547169811,1.886857764
2,high_entitlement,9752,survey-text,6,85139,0.0-6.0,81728,group2,I desperately need some water,D,Male,28,,high,non_institutional,D,5.660377358,1.818107598,3.301886792,1.90732299,5.811320755,1.5573227,2.547169811,1.886857764
2,high_entitlement,58727,survey-text,4,199319,0.0-4.0,5333,group2,can i have some water please,M,Female,30,,high,non_institutional,M,5.660377358,1.818107598,3.301886792,1.90732299,5.811320755,1.5573227,2.547169811,1.886857764
2,high_entitlement,54593,survey-text,2,93757,0.0-2.0,6083,group2,"Buddy, get me some water quick please, I really need it.",D,Male,43,,high,non_institutional,D,5.660377358,1.818107598,3.301886792,1.90732299,5.811320755,1.5573227,2.547169811,1.886857764
2,high_entitlement,65864,survey-text,3,258046,0.0-3.0,81995,group2,"I need water, can you get me some?",M,Male,28,,high,non_institutional,M,5.660377358,1.818107598,3.301886792,1.90732299,5.811320755,1.5573227,2.547169811,1.886857764
2,high_entitlement,27110,survey-text,9,436409,0.0-9.0,6322,group2,"I got lost! Water, please!",D,Female,37,,high,non_institutional,D,5.660377358,1.818107598,3.301886792,1.90732299,5.811320755,1.5573227,2.547169811,1.886857764
2,high_entitlement,42558,survey-text,7,334163,0.0-7.0,3378,group2,I got completely dehydrated bro pass me the water bottle,D,Male,28,D,high,non_institutional,D,5.660377358,1.818107598,3.301886792,1.90732299,5.811320755,1.5573227,2.547169811,1.886857764
2,high_entitlement,29958,survey-text,6,202680,0.0-6.0,59374,group2,Water!,D,Male,32,,high,non_institutional,D,5.660377358,1.818107598,3.301886792,1.90732299,5.811320755,1.5573227,2.547169811,1.886857764
2,high_entitlement,143531,survey-text,3,247114,0.0-3.0,27830,group2,"I need water badly, i am dying of thirst. Please get me water immediately.",D,Female,37,D,high,non_institutional,D,5.660377358,1.818107598,3.301886792,1.90732299,5.811320755,1.5573227,2.547169811,1.886857764
2,high_entitlement,24718,survey-text,5,152728,0.0-5.0,71619,group2,"Hey, do you have a bottle of water I could have?  I'm so thirsty.",M,Female,43,,high,non_institutional,M,5.660377358,1.818107598,3.301886792,1.90732299,5.811320755,1.5573227,2.547169811,1.886857764
2,high_entitlement,29910,survey-text,6,276533,0.0-6.0,27203,group2,Could I get some water please? I've been out for a few hours.,M,Male,27,M,high,non_institutional,M,5.660377358,1.818107598,3.301886792,1.90732299,5.811320755,1.5573227,2.547169811,1.886857764
2,high_entitlement,25358,survey-text,9,376309,0.0-9.0,30463,group2,"Hi, I got lost in the forest and am really thirsty, can you get me some water?",M,Male,29,M,high,non_institutional,M,5.660377358,1.818107598,3.301886792,1.90732299,5.811320755,1.5573227,2.547169811,1.886857764
2,high_entitlement,67013,survey-text,6,717627,0.0-6.0,29623,group2,I think I'm going to faint. Can you please get me some water before I faint?,M,Male,29,M,high,non_institutional,M,5.660377358,1.818107598,3.301886792,1.90732299,5.811320755,1.5573227,2.547169811,1.886857764
2,high_entitlement,30244,survey-text,8,329106,0.0-8.0,68135,group2,"I'm dying of thirst, can you please give me some water?",M,Female,50,,high,non_institutional,M,5.660377358,1.818107598,3.301886792,1.90732299,5.811320755,1.5573227,2.547169811,1.886857764
2,high_entitlement,29268,survey-text,8,386889,0.0-8.0,79786,group2,"I need water, please.",D,Female,42,,high,non_institutional,D,5.660377358,1.818107598,3.301886792,1.90732299,5.811320755,1.5573227,2.547169811,1.886857764
2,high_entitlement,14080,survey-text,8,300064,0.0-8.0,94617,group2,Can you please get me some water? I'm so thirsty.,M,Male,34,,high,non_institutional,M,5.660377358,1.818107598,3.301886792,1.90732299,5.811320755,1.5573227,2.547169811,1.886857764
2,high_entitlement,14205,survey-text,3,120310,0.0-3.0,637,group2,Hey could you get me some water please I'm dying?,M,Male,24,,high,non_institutional,M,5.660377358,1.818107598,3.301886792,1.90732299,5.811320755,1.5573227,2.547169811,1.886857764
2,high_entitlement,147866,survey-text,3,280068,0.0-3.0,79949,group2,"Hey, __friend__. I got lost and ran out of water. Could you bring me some water? Dehydration is starting to kick in.",M,Male,35,,high,non_institutional,M,5.660377358,1.818107598,3.301886792,1.90732299,5.811320755,1.5573227,2.547169811,1.886857764
2,high_entitlement,35087,survey-text,2,108019,0.0-2.0,51195,group2,I haven't had water in hours. Would you please get me some water?!,M,Female,39,,high,non_institutional,M,5.660377358,1.818107598,3.301886792,1.90732299,5.811320755,1.5573227,2.547169811,1.886857764
2,low_entitlement,60453,survey-text,7,482061,0.0-7.0,63746,group1,Would you mind bringing me some water from the table over there?,M,Male,59,,low,non_institutional,M,5.395833333,2.028935192,2.625,1.996006652,4.29787234,1.428207962,2.5625,1.820757967
2,low_entitlement,25235,survey-text,8,256280,0.0-8.0,37109,group1,"Bob, can you get me a bottle of water while your up?",M,Female,33,,low,non_institutional,M,5.395833333,2.028935192,2.625,1.996006652,4.29787234,1.428207962,2.5625,1.820757967
2,low_entitlement,26751,survey-text,2,39707,0.0-2.0,36913,group1,will you please give me a glass of water?,M,Male,30,,low,non_institutional,M,5.395833333,2.028935192,2.625,1.996006652,4.29787234,1.428207962,2.5625,1.820757967
2,low_entitlement,11206,survey-text,9,272547,0.0-9.0,21894,group1,Would you get me a water please? ,M,Female,44,M,low,non_institutional,M,5.395833333,2.028935192,2.625,1.996006652,4.29787234,1.428207962,2.5625,1.820757967
2,low_entitlement,28745,survey-text,8,237631,0.0-8.0,10498,group1,"Can you bring me some water, pretty please?",M,Male,48,M,low,non_institutional,M,5.395833333,2.028935192,2.625,1.996006652,4.29787234,1.428207962,2.5625,1.820757967
2,low_entitlement,38110,survey-text,8,338241,0.0-8.0,16264,group1,"I would ask, ""Hey man can you grab me some H20?""",M,Male,30,M,low,non_institutional,M,5.395833333,2.028935192,2.625,1.996006652,4.29787234,1.428207962,2.5625,1.820757967
2,low_entitlement,42562,survey-text,4,236741,0.0-4.0,3382,group1,"While you're up, would you mind grabbing me some water, if it's not too much trouble?",M,Male,27,,low,non_institutional,M,5.395833333,2.028935192,2.625,1.996006652,4.29787234,1.428207962,2.5625,1.820757967
2,low_entitlement,21626,survey-text,8,266234,0.0-8.0,27048,group1,Can you get me some water please?,M,Female,42,M,low,non_institutional,M,5.395833333,2.028935192,2.625,1.996006652,4.29787234,1.428207962,2.5625,1.820757967
2,low_entitlement,26477,survey-text,6,274181,0.0-6.0,32506,group1,"Yo, mind bringing back some water since you're already up?",M,Male,27,EM,low,non_institutional,M,5.395833333,2.028935192,2.625,1.996006652,4.29787234,1.428207962,2.5625,1.820757967
2,low_entitlement,9517,survey-text,9,135271,0.0-9.0,17117,group1,Can you get me a glass of water?,M,Male,31,M,low,non_institutional,M,5.395833333,2.028935192,2.625,1.996006652,4.29787234,1.428207962,2.5625,1.820757967
2,low_entitlement,19631,survey-text,6,177857,0.0-6.0,76092,group1,Will you grab me a water from the cooler please.,M,Male,53,,low,non_institutional,M,5.395833333,2.028935192,2.625,1.996006652,4.29787234,1.428207962,2.5625,1.820757967
2,low_entitlement,15773,survey-text,2,44467,0.0-2.0,60475,group1,Can you grab me a water while you're up?,M,Male,43,,low,non_institutional,M,5.395833333,2.028935192,2.625,1.996006652,4.29787234,1.428207962,2.5625,1.820757967
2,low_entitlement,22469,survey-text,5,220951,0.0-5.0,34216,group1,Hey dude get me some water to drink,D,Female,29,,low,non_institutional,D,5.395833333,2.028935192,2.625,1.996006652,4.29787234,1.428207962,2.5625,1.820757967
2,low_entitlement,9014,survey-text,9,116170,0.0-9.0,74804,group1,Would you mind getting me some water?,M,Male,31,,low,non_institutional,M,5.395833333,2.028935192,2.625,1.996006652,4.29787234,1.428207962,2.5625,1.820757967
2,low_entitlement,86256,survey-text,3,289328,0.0-3.0,99924,group1,please give me the water i feel very thirsty,D,Male,43,,low,non_institutional,D,5.395833333,2.028935192,2.625,1.996006652,4.29787234,1.428207962,2.5625,1.820757967
2,low_entitlement,19143,survey-text,8,250883,0.0-8.0,18196,group1,Grab me some water on your way back bro!,D,Male,29,D,low,non_institutional,D,5.395833333,2.028935192,2.625,1.996006652,4.29787234,1.428207962,2.5625,1.820757967
2,low_entitlement,32186,survey-text,7,519967,0.0-7.0,62299,group1,"While you're up, could you get me some water?",M,Female,55,,low,non_institutional,M,5.395833333,2.028935192,2.625,1.996006652,4.29787234,1.428207962,2.5625,1.820757967
2,low_entitlement,41644,survey-text,3,164885,0.0-3.0,82556,group1,Can you go to the spring and get some water?,M,Male,29,,low,non_institutional,M,5.395833333,2.028935192,2.625,1.996006652,4.29787234,1.428207962,2.5625,1.820757967
2,low_entitlement,18726,survey-text,8,242326,0.0-8.0,24461,group1,Hey man can you throw me that canteen.,M,Male,47,M,low,non_institutional,M,5.395833333,2.028935192,2.625,1.996006652,4.29787234,1.428207962,2.5625,1.820757967
2,low_entitlement,19057,survey-text,7,178798,0.0-7.0,19295,group1,"Can you give me some water, please?",M,Female,28,M,low,non_institutional,M,5.395833333,2.028935192,2.625,1.996006652,4.29787234,1.428207962,2.5625,1.820757967
2,low_entitlement,20132,survey-text,3,108434,0.0-3.0,50623,group1,"""Hey, would you mind getting me some water while you're up?""",M,Female,36,,low,non_institutional,M,5.395833333,2.028935192,2.625,1.996006652,4.29787234,1.428207962,2.5625,1.820757967
2,low_entitlement,17636,survey-text,6,223991,0.0-6.0,35325,group1,"hey, grab me a drink!",D,Male,41,,low,non_institutional,D,5.395833333,2.028935192,2.625,1.996006652,4.29787234,1.428207962,2.5625,1.820757967
2,low_entitlement,29105,survey-text,3,141731,0.0-3.0,46504,group1,?Give me the canteen?,D,Male,32,,low,non_institutional,D,5.395833333,2.028935192,2.625,1.996006652,4.29787234,1.428207962,2.5625,1.820757967
2,low_entitlement,22825,survey-text,9,467270,0.0-9.0,86538,group1,Can you get me some water.,M,Male,35,,low,non_institutional,M,5.395833333,2.028935192,2.625,1.996006652,4.29787234,1.428207962,2.5625,1.820757967
2,low_entitlement,11399,survey-text,5,93567,0.0-5.0,20310,group1,grab me some water while you are up,D,Male,33,D,low,non_institutional,D,5.395833333,2.028935192,2.625,1.996006652,4.29787234,1.428207962,2.5625,1.820757967
2,low_entitlement,14012,survey-text,5,136887,0.0-5.0,72843,group1,Can you grab me a water while your up?,M,Female,32,,low,non_institutional,M,5.395833333,2.028935192,2.625,1.996006652,4.29787234,1.428207962,2.5625,1.820757967
2,low_entitlement,19646,survey-text,8,247369,0.0-8.0,32427,group1,hey can you toss me a bottle of water,M,Male,48,D,low,non_institutional,M,5.395833333,2.028935192,2.625,1.996006652,4.29787234,1.428207962,2.5625,1.820757967
2,low_entitlement,25293,survey-text,6,373378,0.0-6.0,91014,group1,Could you grab me a bottle of water while you are up please?,M,Female,32,,low,non_institutional,M,5.395833333,2.028935192,2.625,1.996006652,4.29787234,1.428207962,2.5625,1.820757967
2,low_entitlement,38372,survey-text,6,439656,0.0-6.0,61815,group1,"Hai, Please fetch me some water for me..",D,Male,49,,low,non_institutional,D,5.395833333,2.028935192,2.625,1.996006652,4.29787234,1.428207962,2.5625,1.820757967
2,low_entitlement,41004,survey-text,4,177963,0.0-4.0,72957,group1,Good morning my friend. Could you please give me a glass of water?,M,Male,40,,low,non_institutional,M,5.395833333,2.028935192,2.625,1.996006652,4.29787234,1.428207962,2.5625,1.820757967
2,low_entitlement,23696,survey-text,9,509030,0.0-9.0,20158,group1,Will you please get some water for me?,M,Male,47,M,low,non_institutional,M,5.395833333,2.028935192,2.625,1.996006652,4.29787234,1.428207962,2.5625,1.820757967
2,low_entitlement,52590,survey-text,8,625035,0.0-8.0,6795,group1,"let assume my friend name Ram.ram i am in thirsty,so bring some water please.",D,Male,25,,low,non_institutional,D,5.395833333,2.028935192,2.625,1.996006652,4.29787234,1.428207962,2.5625,1.820757967
2,low_entitlement,46990,survey-text,9,1026393,0.0-9.0,11719,group1,"Dude, can you buy some water? I will pay you later.",M,Male,32,M,low,non_institutional,M,5.395833333,2.028935192,2.625,1.996006652,4.29787234,1.428207962,2.5625,1.820757967
2,low_entitlement,70388,survey-text,6,637090,0.0-6.0,3558,group1,"dude, bring me some water!",D,Male,28,,low,non_institutional,D,5.395833333,2.028935192,2.625,1.996006652,4.29787234,1.428207962,2.5625,1.820757967
2,low_entitlement,51541,survey-text,6,854007,0.0-6.0,21490,group1,"hi dude, I need some water. can you help me?",M,Male,27,M,low,non_institutional,M,5.395833333,2.028935192,2.625,1.996006652,4.29787234,1.428207962,2.5625,1.820757967
2,low_entitlement,3775,survey-text,5,59948,0.0-5.0,64062,group1,I need some water bud,D,Male,36,,low,non_institutional,D,5.395833333,2.028935192,2.625,1.996006652,4.29787234,1.428207962,2.5625,1.820757967
2,low_entitlement,7182,survey-text,4,61347,0.0-4.0,15835,group1,"Hey, toss me a water.",D,Male,34,D,low,non_institutional,D,5.395833333,2.028935192,2.625,1.996006652,4.29787234,1.428207962,2.5625,1.820757967
2,low_entitlement,48540,survey-text,6,354612,0.0-6.0,61016,group1,"Hey, while you're up, can you get me some water? Thanks",M,Male,30,,low,non_institutional,M,5.395833333,2.028935192,2.625,1.996006652,4.29787234,1.428207962,2.5625,1.820757967
3,high_entitlement,54069,survey-text,2,80336,0.0-2.0,10498,group1,"My house just burned down, can I stay with you?!",M,Male,48,M,high,non_institutional,M,3.791666667,2.09313298,5.574468085,1.281043747,5.375,1.606171608,5.645833333,0.978265581
3,high_entitlement,24705,survey-text,8,147895,0.0-8.0,60475,group1,Hi. I was wondering if there was any chance I could stay with you for a couple of days.,W,Male,43,,high,non_institutional,W,3.791666667,2.09313298,5.574468085,1.281043747,5.375,1.606171608,5.645833333,0.978265581
3,high_entitlement,19318,survey-text,9,267689,0.0-9.0,32427,group1,"hey my apartment burned down, can i crash with you? ",M,Male,48,M,high,non_institutional,M,3.791666667,2.09313298,5.574468085,1.281043747,5.375,1.606171608,5.645833333,0.978265581
3,high_entitlement,117539,survey-text,4,347992,0.0-4.0,61815,group1,"Hai, I Need badly your help, since my building electrical wires are burnt, It will take some time for repair, till that time I want to stay with you.",D,Male,49,,high,non_institutional,D,3.791666667,2.09313298,5.574468085,1.281043747,5.375,1.606171608,5.645833333,0.978265581
3,high_entitlement,78644,survey-text,8,433630,0.0-8.0,34216,group1,"Hello dude, my apartment building got fired so i have to stay somewhere till it is renovated can i stay with u.",M,Female,29,,high,non_institutional,M,3.791666667,2.09313298,5.574468085,1.281043747,5.375,1.606171608,5.645833333,0.978265581
3,high_entitlement,115521,survey-text,2,202029,0.0-2.0,99924,group1,I almost lost all my things in the fire accident would you mind me staying with you.,M,Male,43,,high,non_institutional,M,3.791666667,2.09313298,5.574468085,1.281043747,5.375,1.606171608,5.645833333,0.978265581
3,high_entitlement,44297,survey-text,9,253517,0.0-9.0,19295,group1,"Can I stay with you for a short term, please> An electrical fire burns down half my apartment building. ",M,Female,28,M,high,non_institutional,M,3.791666667,2.09313298,5.574468085,1.281043747,5.375,1.606171608,5.645833333,0.978265581
3,high_entitlement,104912,survey-text,4,390472,0.0-4.0,11719,group1,"Bro, I really need your help, I hope you wouldn't mind to allow me to stay with you until my apartment fixed.",M,Male,32,EM,high,non_institutional,M,3.791666667,2.09313298,5.574468085,1.281043747,5.375,1.606171608,5.645833333,0.978265581
3,high_entitlement,63918,survey-text,5,298004,0.0-5.0,63746,group1,My apartment just burned down and I don't have any place to stay; can I stay with you for a few days until I get things sorted out?,M,Male,59,,high,non_institutional,M,3.791666667,2.09313298,5.574468085,1.281043747,5.375,1.606171608,5.645833333,0.978265581
3,high_entitlement,5925,survey-text,6,66878,0.0-6.0,64062,group1,I need to spend the night. is that ok?,D,Male,36,,high,non_institutional,D,3.791666667,2.09313298,5.574468085,1.281043747,5.375,1.606171608,5.645833333,0.978265581
3,high_entitlement,79084,survey-text,3,193820,0.0-3.0,61016,group1,"Hey, a fire burned down half of my apartment building. I'm okay, but I need a place to stay. So, can I stay with you?",M,Male,30,,high,non_institutional,M,3.791666667,2.09313298,5.574468085,1.281043747,5.375,1.606171608,5.645833333,0.978265581
3,high_entitlement,43322,survey-text,8,283435,0.0-8.0,35325,group1,"Hi, I've got a problem. My house burned down. Can I stay with you?",M,Male,41,,high,non_institutional,M,3.791666667,2.09313298,5.574468085,1.281043747,5.375,1.606171608,5.645833333,0.978265581
3,high_entitlement,13997,survey-text,3,53148,0.0-3.0,15835,group1,Can I crash at your place tonight?,M,Male,34,M,high,non_institutional,M,3.791666667,2.09313298,5.574468085,1.281043747,5.375,1.606171608,5.645833333,0.978265581
3,high_entitlement,59076,survey-text,3,120916,0.0-3.0,32506,group1,"Hey man, I know this is sudden but I have nowhere else to go. My apartment caught fire and I really need somewhere to live until I get back on my feet. Do you have any extra space?",W,Male,27,M,high,non_institutional,W,3.791666667,2.09313298,5.574468085,1.281043747,5.375,1.606171608,5.645833333,0.978265581
3,high_entitlement,24054,survey-text,2,68228,0.0-2.0,72843,group1,Half of my apartment building just burned down. I need a place to stay. can I come over?,M,Female,32,,high,non_institutional,M,3.791666667,2.09313298,5.574468085,1.281043747,5.375,1.606171608,5.645833333,0.978265581
3,high_entitlement,21840,survey-text,4,70385,0.0-4.0,74804,group1,"There's been a really bad accident at my place, so I was wondering if I could stay the night.",W,Male,31,,high,non_institutional,W,3.791666667,2.09313298,5.574468085,1.281043747,5.375,1.606171608,5.645833333,0.978265581
3,high_entitlement,54376,survey-text,7,909393,0.0-7.0,21490,group1,"hello, i need your help. here my building fired. so can you come here?",M,Male,27,M,high,non_institutional,M,3.791666667,2.09313298,5.574468085,1.281043747,5.375,1.606171608,5.645833333,0.978265581
3,high_entitlement,46654,survey-text,4,116553,0.0-4.0,24461,group1,"Man, you wont belive this, but my place just burned down.  Do you mind if I stay with you tonight.",M,Male,47,EM,high,non_institutional,M,3.791666667,2.09313298,5.574468085,1.281043747,5.375,1.606171608,5.645833333,0.978265581
3,high_entitlement,51371,survey-text,2,84363,0.0-2.0,21894,group1,There is an emergency at my apartment and I need somewhere to stay. Could I come over? ,M,Female,44,M,high,non_institutional,M,3.791666667,2.09313298,5.574468085,1.281043747,5.375,1.606171608,5.645833333,0.978265581
3,high_entitlement,13804,survey-text,6,95245,0.0-6.0,17117,group1,Can I bunk with you tonight?,M,Male,31,M,high,non_institutional,M,3.791666667,2.09313298,5.574468085,1.281043747,5.375,1.606171608,5.645833333,0.978265581
3,high_entitlement,32805,survey-text,7,299129,0.0-7.0,16264,group1,"I would ask, ""Look man I'm sorry to ask but I don't have a choice...can I stay with you for a bit until I get back on my feet?""",M,Male,30,M,high,non_institutional,M,3.791666667,2.09313298,5.574468085,1.281043747,5.375,1.606171608,5.645833333,0.978265581
3,high_entitlement,29642,survey-text,6,217793,0.0-6.0,27048,group1,My apartment building burned down so can I come stay with you?,M,Female,42,M,high,non_institutional,M,3.791666667,2.09313298,5.574468085,1.281043747,5.375,1.606171608,5.645833333,0.978265581
3,high_entitlement,113319,survey-text,6,507979,0.0-6.0,6795,group1,"hi friend, unfortunately my house was burnt due to some electrical fire. so can you allow me to stay in your house.",M,Male,25,,high,non_institutional,M,3.791666667,2.09313298,5.574468085,1.281043747,5.375,1.606171608,5.645833333,0.978265581
3,high_entitlement,24491,survey-text,9,255708,0.0-9.0,76092,group1,"hey man, our place burned down can I crash with you for a while please",M,Male,53,,high,non_institutional,M,3.791666667,2.09313298,5.574468085,1.281043747,5.375,1.606171608,5.645833333,0.978265581
3,high_entitlement,70492,survey-text,8,376561,0.0-8.0,72957,group1,Hello. My apartment burned. Is it okay with you if I'm gonna stay at your apartment for the meantime.,W,Male,40,,high,non_institutional,W,3.791666667,2.09313298,5.574468085,1.281043747,5.375,1.606171608,5.645833333,0.978265581
3,high_entitlement,30767,survey-text,8,321349,0.0-8.0,82556,group1,"My house just burned down so I'm homeless, can you let me crash for the night?",M,Male,29,,high,non_institutional,M,3.791666667,2.09313298,5.574468085,1.281043747,5.375,1.606171608,5.645833333,0.978265581
3,high_entitlement,24026,survey-text,9,255251,0.0-9.0,36913,group1,can i stay with you for a while please?,M,Male,30,,high,non_institutional,M,3.791666667,2.09313298,5.574468085,1.281043747,5.375,1.606171608,5.645833333,0.978265581
3,high_entitlement,129521,survey-text,2,266391,0.0-2.0,62299,group1,"I can't stay in my apartment building because an electrical fire burned half of it down, so I have no place to go? Could I stay with you for just a while?",M,Female,55,,high,non_institutional,M,3.791666667,2.09313298,5.574468085,1.281043747,5.375,1.606171608,5.645833333,0.978265581
3,high_entitlement,70429,survey-text,8,449242,0.0-8.0,3382,group1,"Hey John. Sorry to call you like this, but if it's not too much of an inconvenience, could I come crash at your place for the night? My apartment building had a fire, and I can't stay there.",M,Male,27,,high,non_institutional,M,3.791666667,2.09313298,5.574468085,1.281043747,5.375,1.606171608,5.645833333,0.978265581
3,high_entitlement,35190,survey-text,8,257894,0.0-8.0,50623,group1,"I really hate to ask you this, and please feel free to say no if it's not convenient, but the fire has put me out, and I need a place to stay for a few days. I'll do some chores and some cooking, or cover other costs.",D,Female,36,,high,non_institutional,D,3.791666667,2.09313298,5.574468085,1.281043747,5.375,1.606171608,5.645833333,0.978265581
3,high_entitlement,45182,survey-text,3,138649,0.0-3.0,37109,group1,I was wondering if I could stay with you for a while. My apartment building just burned down.,W,Female,33,,high,non_institutional,W,3.791666667,2.09313298,5.574468085,1.281043747,5.375,1.606171608,5.645833333,0.978265581
3,high_entitlement,40139,survey-text,6,219247,0.0-6.0,46504,group1,My house burned down. Can I crash in your spare room for a while?,M,Male,32,,high,non_institutional,M,3.791666667,2.09313298,5.574468085,1.281043747,5.375,1.606171608,5.645833333,0.978265581
3,high_entitlement,126280,survey-text,2,195471,0.0-2.0,91014,group1,"Hey, I hate to ask this but half of are apartment building was ruined in a fire and now we need somewhere to stay until we figure out a more permanent situation, would you be able to spare a bit of space for us to stay until then?",W,Female,32,,high,non_institutional,W,3.791666667,2.09313298,5.574468085,1.281043747,5.375,1.606171608,5.645833333,0.978265581
3,high_entitlement,49567,survey-text,6,419702,0.0-6.0,20158,group1,Will you please help me to get a place to stay?,M,Male,47,M,high,non_institutional,M,3.791666667,2.09313298,5.574468085,1.281043747,5.375,1.606171608,5.645833333,0.978265581
3,high_entitlement,47821,survey-text,7,230735,0.0-7.0,18196,group1,I have bad news and a huge favor to ask.  My apartment burned down and I need a place to stay.  I will pay you my share of the rent during my stay.,D,Male,29,IS,high,non_institutional,D,3.791666667,2.09313298,5.574468085,1.281043747,5.375,1.606171608,5.645833333,0.978265581
3,high_entitlement,229545,survey-text,3,442921,0.0-3.0,3558,group1,"hey, dude. you gotta guest for few days",D,Male,28,,high,non_institutional,D,3.791666667,2.09313298,5.574468085,1.281043747,5.375,1.606171608,5.645833333,0.978265581
3,high_entitlement,11029,survey-text,7,112742,0.0-7.0,20310,group1,can I crash with you,M,Male,33,M,high,non_institutional,M,3.791666667,2.09313298,5.574468085,1.281043747,5.375,1.606171608,5.645833333,0.978265581
3,low_entitlement,37530,survey-text,5,171721,0.0-5.0,59374,group2,So I'm going to be in town next week and I was wondering if I could stay with you while I there?,W,Male,32,,low,non_institutional,W,4.269230769,1.560736184,5.057692308,1.289679418,5.442307692,1.194980704,5.461538462,1.162511454
3,low_entitlement,12869,survey-text,6,130822,0.0-6.0,33002,group2,Would it be possible for me to stay with you?,W,Female,27,EM,low,non_institutional,W,4.269230769,1.560736184,5.057692308,1.289679418,5.442307692,1.194980704,5.461538462,1.162511454
3,low_entitlement,98993,survey-text,7,448924,0.0-7.0,81995,group2,I'm going to be in town on a business trip soon.   Would staying at your place work for you?,W,Male,28,,low,non_institutional,W,4.269230769,1.560736184,5.057692308,1.289679418,5.442307692,1.194980704,5.461538462,1.162511454
3,low_entitlement,9829,survey-text,4,96462,0.0-4.0,94617,group2,Do you mind if I stay with you?,M,Male,34,,low,non_institutional,M,4.269230769,1.560736184,5.057692308,1.289679418,5.442307692,1.194980704,5.461538462,1.162511454
3,low_entitlement,84277,survey-text,5,344915,0.0-5.0,6083,group2,"Hey, I'll be in town soon, Any chance i can crash at your pad. Should be fun!",M,Male,43,,low,non_institutional,M,4.269230769,1.560736184,5.057692308,1.289679418,5.442307692,1.194980704,5.461538462,1.162511454
3,low_entitlement,38411,survey-text,9,297624,0.0-9.0,97848,group2,"Hey, I know it's been a while, but I was heading to your town next week on a work trip. I was wondering if you had any room for me to crash while I'm in town?",W,Female,35,,low,non_institutional,W,4.269230769,1.560736184,5.057692308,1.289679418,5.442307692,1.194980704,5.461538462,1.162511454
3,low_entitlement,719291,survey-text,7,1159049,0.0-7.0,52915,group2,"I'm not sure how you feel about people dropping in to stay, but thought I would ask if you would mind me staying at your place? It would give us some time to catch up and hang out when I am not working.",W,Female,48,,low,non_institutional,W,4.269230769,1.560736184,5.057692308,1.289679418,5.442307692,1.194980704,5.461538462,1.162511454
3,low_entitlement,58089,survey-text,3,151301,0.0-3.0,3378,group2,Dude I have some work over there do you mind if I stay in your spare room for a day or two?,M,Male,28,EM,low,non_institutional,M,4.269230769,1.560736184,5.057692308,1.289679418,5.442307692,1.194980704,5.461538462,1.162511454
3,low_entitlement,81918,survey-text,6,581318,0.0-6.0,21098,group2,"I have work commitments near where you live, would you mind accommodating me in your spare room? ",W,Male,26,EM,low,non_institutional,W,4.269230769,1.560736184,5.057692308,1.289679418,5.442307692,1.194980704,5.461538462,1.162511454
3,low_entitlement,79485,survey-text,6,284714,0.0-6.0,16483,group2,"Hi, I just need a help.Heard you have a spare Bedroom could I share it as I am engaged in new work in your loaction.",M,Female,28,M,low,non_institutional,M,4.269230769,1.560736184,5.057692308,1.289679418,5.442307692,1.194980704,5.461538462,1.162511454
3,low_entitlement,37036,survey-text,8,398524,0.0-8.0,70965,group2,"Greetings, may I stay with you? ",M,Male,23,,low,non_institutional,M,4.269230769,1.560736184,5.057692308,1.289679418,5.442307692,1.194980704,5.461538462,1.162511454
3,low_entitlement,35744,survey-text,7,205606,0.0-7.0,71619,group2,"I don't mean to put you on the spot, but could I stay with you while I'm in town?  I'll pay you.",M,Female,43,,low,non_institutional,M,4.269230769,1.560736184,5.057692308,1.289679418,5.442307692,1.194980704,5.461538462,1.162511454
3,low_entitlement,65287,survey-text,4,277287,0.0-4.0,28470,group2,Hey there. I was wondering if it would be ok if I stay with you for a few days. I'm on a work assignment that requires me to travel and I need a place to crash.,W,Male,39,EM,low,non_institutional,W,4.269230769,1.560736184,5.057692308,1.289679418,5.442307692,1.194980704,5.461538462,1.162511454
3,low_entitlement,34250,survey-text,6,301093,0.0-6.0,51195,group2,I'm going to be in town for work. Do you think that I could stay with you while I'm in town?,W,Female,39,,low,non_institutional,W,4.269230769,1.560736184,5.057692308,1.289679418,5.442307692,1.194980704,5.461538462,1.162511454
3,low_entitlement,61389,survey-text,8,851402,0.0-8.0,29623,group2,"Hi. I'll be in your town for a few days. If you don't mind, can I stay with you? I'm sure it'll be fun.",M,Male,29,EM,low,non_institutional,M,4.269230769,1.560736184,5.057692308,1.289679418,5.442307692,1.194980704,5.461538462,1.162511454
3,low_entitlement,47253,survey-text,5,539971,0.0-5.0,61890,group2,"Hey, I'm going to be in town next month. Is it okay if I stay with you for a few days?",W,Female,32,,low,non_institutional,W,4.269230769,1.560736184,5.057692308,1.289679418,5.442307692,1.194980704,5.461538462,1.162511454
3,low_entitlement,29261,survey-text,3,83551,0.0-3.0,28397,group2,Hey brother.  I'll be in town for a couple days for work.  Can I crash at your house?,M,Male,34,M,low,non_institutional,M,4.269230769,1.560736184,5.057692308,1.289679418,5.442307692,1.194980704,5.461538462,1.162511454
3,low_entitlement,29733,survey-text,7,260112,0.0-7.0,3590,group2,I'm coming to town for work and wanted to know if I could crash at your place,D,Female,47,,low,non_institutional,D,4.269230769,1.560736184,5.057692308,1.289679418,5.442307692,1.194980704,5.461538462,1.162511454
3,low_entitlement,64103,survey-text,9,601570,0.0-9.0,65324,group2,"Hey, I am going to be in town on work, is there any way I could crash at your place for a couple nights?",W,Male,43,,low,non_institutional,W,4.269230769,1.560736184,5.057692308,1.289679418,5.442307692,1.194980704,5.461538462,1.162511454
3,low_entitlement,27566,survey-text,7,138214,0.0-7.0,82481,group2,"Hey, I'm going to be in town this weekend for work. Do you want to get together? Would you mind if I dropped by?",M,Female,30,,low,non_institutional,M,4.269230769,1.560736184,5.057692308,1.289679418,5.442307692,1.194980704,5.461538462,1.162511454
3,low_entitlement,16471,survey-text,2,40266,0.0-2.0,81728,group2,Can I stay at your place for a couple of days?,M,Male,28,,low,non_institutional,M,4.269230769,1.560736184,5.057692308,1.289679418,5.442307692,1.194980704,5.461538462,1.162511454
3,low_entitlement,72028,survey-text,3,151004,0.0-3.0,30463,group2,"Hey, I'm coming in due to a work obligation and was wondering if I could hang with you for a day or two since you live right by where I'm going.  Thanks for your hospitality.",W,Male,29,EM,low,non_institutional,W,4.269230769,1.560736184,5.057692308,1.289679418,5.442307692,1.194980704,5.461538462,1.162511454
3,low_entitlement,83918,survey-text,4,231579,0.0-4.0,68135,group2,"Since I'm going to be coming to town soon for work, I'm wondering if I could stay with you and catch up.",W,Female,50,,low,non_institutional,W,4.269230769,1.560736184,5.057692308,1.289679418,5.442307692,1.194980704,5.461538462,1.162511454
3,low_entitlement,66308,survey-text,6,411195,0.0-6.0,27830,group2,Can I accompany you a day so that we can talk about old memories and have fun?,M,Female,37,M,low,non_institutional,M,4.269230769,1.560736184,5.057692308,1.289679418,5.442307692,1.194980704,5.461538462,1.162511454
3,low_entitlement,57434,survey-text,6,331718,0.0-6.0,6322,group2,"Hey! I have to be down there for work next week, and I'm wondering if there is any way I can crash in your spare room?",W,Female,37,,low,non_institutional,W,4.269230769,1.560736184,5.057692308,1.289679418,5.442307692,1.194980704,5.461538462,1.162511454
3,low_entitlement,75659,survey-text,3,187377,0.0-3.0,79786,group2,"I'm going to be your town for work, could I stay at your place?",M,Female,42,,low,non_institutional,M,4.269230769,1.560736184,5.057692308,1.289679418,5.442307692,1.194980704,5.461538462,1.162511454
3,low_entitlement,108117,survey-text,8,507471,0.0-8.0,44058,group2,"""Hey! I'm going to be in town soon for a work thing! Will you be there then too? If it's not too much trouble could I use your spare room?""",W,Female,26,,low,non_institutional,W,4.269230769,1.560736184,5.057692308,1.289679418,5.442307692,1.194980704,5.461538462,1.162511454
3,low_entitlement,39292,survey-text,3,139572,0.0-3.0,5333,group2,"can you host me?",M,Female,30,,low,non_institutional,M,4.269230769,1.560736184,5.057692308,1.289679418,5.442307692,1.194980704,5.461538462,1.162511454
3,low_entitlement,55851,survey-text,8,465945,0.0-8.0,80139,group2,HALLO KENNETH I HAVE TO STAY IN YOUR HOUSE FOR FEW DAYS BECAUSE MY OFFICE WORK HAS TO BE DONE IN YOUR TOWN. SHALL I COME AND STAY IN YOUR HOUSE?,M,Male,36,,low,non_institutional,M,4.269230769,1.560736184,5.057692308,1.289679418,5.442307692,1.194980704,5.461538462,1.162511454
3,low_entitlement,34191,survey-text,3,169476,0.0-3.0,27203,group2,"Hey man, I've got to stay out of town for work for a day or two. Mind if I crash at your place?",M,Male,27,EM,low,non_institutional,M,4.269230769,1.560736184,5.057692308,1.289679418,5.442307692,1.194980704,5.461538462,1.162511454
3,low_entitlement,28798,survey-text,7,246315,0.0-7.0,28185,group2,"Hi, (friend's name). I am coming into town soon and was wondering if I could stay in your spare bedroom, if it's not too much of a problem.",W,Female,30,EM,low,non_institutional,W,4.269230769,1.560736184,5.057692308,1.289679418,5.442307692,1.194980704,5.461538462,1.162511454
3,low_entitlement,205204,survey-text,4,486276,0.0-4.0,79949,group2,"Hi, _friend_. It's been a while since I 've seen you. How have you been? As fate would have it, the job is sending me to a conference in your town and I was wondering if you wanted to get together when I get there? If it isn't too much trouble, maybe I could stay at your place while I am there. Do you have a spare room that I could crash in?",M,Male,35,,low,non_institutional,M,4.269230769,1.560736184,5.057692308,1.289679418,5.442307692,1.194980704,5.461538462,1.162511454
3,low_entitlement,48615,survey-text,2,105102,0.0-2.0,637,group2,"I would ask them how they're doing and catch up, but quickly let them know I'm calling because I'm out on work and it would help if I had a place to stay. I would then ask if it's cool if I could crash there for a little while.",W,Male,24,,low,non_institutional,W,4.269230769,1.560736184,5.057692308,1.289679418,5.442307692,1.194980704,5.461538462,1.162511454
3,low_entitlement,40183,survey-text,9,363555,0.0-9.0,72733,group2,hey so i'm out on a work trip and don't have a hotel ready. is it ok if i come crash at your place?,W,Male,25,,low,non_institutional,W,4.269230769,1.560736184,5.057692308,1.289679418,5.442307692,1.194980704,5.461538462,1.162511454
4,high_entitlement,44241,survey-text,4,223148,0.0-4.0,51195,group2,i just checked my account online and have some charges that were not done by me. I need to cancel my card right away,D,Female,39,,high,institutional,D,5.538461538,1.68571319,4.134615385,1.749272635,5.326923077,1.353588605,5.480769231,1.162997894
4,high_entitlement,29107,survey-text,4,173266,0.0-4.0,28185,group2,Someone has stolen my credit card and I'd like to begin the process of cancelling the account.,D,Female,30,D,high,institutional,D,5.538461538,1.68571319,4.134615385,1.749272635,5.326923077,1.353588605,5.480769231,1.162997894
4,high_entitlement,38377,survey-text,8,349947,0.0-8.0,30463,group2,"Hi, I have some charges on my card I don't recognize and feel someone's stolen my card information.  Can I ask you to cancel the card and issue me a new card number, thanks!",M,Male,29,M,high,institutional,M,5.538461538,1.68571319,4.134615385,1.749272635,5.326923077,1.353588605,5.480769231,1.162997894
4,high_entitlement,32736,survey-text,7,184937,0.0-7.0,28397,group2,"I need to cancel my card, I believe someone has stolen it.  There are a bunch of charges on it that aren't mine.",D,Male,34,IS,high,institutional,D,5.538461538,1.68571319,4.134615385,1.749272635,5.326923077,1.353588605,5.480769231,1.162997894
4,high_entitlement,70966,survey-text,5,312001,0.0-5.0,52915,group2,"Hi, I'm looking at my account and I see some charges that I did not make. Can you help me?",M,Female,48,,high,institutional,M,5.538461538,1.68571319,4.134615385,1.749272635,5.326923077,1.353588605,5.480769231,1.162997894
4,high_entitlement,45821,survey-text,3,210557,0.0-3.0,28470,group2,I would like to report unauthorized charges on my account and have the account closed.,D,Male,39,D,high,institutional,D,5.538461538,1.68571319,4.134615385,1.749272635,5.326923077,1.353588605,5.480769231,1.162997894
4,high_entitlement,19457,survey-text,5,116948,0.0-5.0,33002,group2,I need you to cancel this card since someone else has been using it that isn't me.,D,Female,27,D,high,institutional,D,5.538461538,1.68571319,4.134615385,1.749272635,5.326923077,1.353588605,5.480769231,1.162997894
4,high_entitlement,84197,survey-text,4,259636,0.0-4.0,6083,group2,I have discovered some fraudulent charges on my credit card and so would like to close that card,D,Male,43,,high,institutional,D,5.538461538,1.68571319,4.134615385,1.749272635,5.326923077,1.353588605,5.480769231,1.162997894
4,high_entitlement,44503,survey-text,2,72400,0.0-2.0,71619,group2,"I believe some fraudulent charges have been put on my credit card.  Would you look into in, and cancel the card if that's true.",M,Female,43,,high,institutional,M,5.538461538,1.68571319,4.134615385,1.749272635,5.326923077,1.353588605,5.480769231,1.162997894
4,high_entitlement,52075,survey-text,2,111661,0.0-2.0,68135,group2,"My credit card has been stolen. There are charges on it that I haven't made, please put a stop on it now.",D,Female,50,,high,institutional,D,5.538461538,1.68571319,4.134615385,1.749272635,5.326923077,1.353588605,5.480769231,1.162997894
4,high_entitlement,22144,survey-text,8,119241,0.0-8.0,81728,group2,I need to cancel the card because it has been misused,D,Male,28,,high,institutional,D,5.538461538,1.68571319,4.134615385,1.749272635,5.326923077,1.353588605,5.480769231,1.162997894
4,high_entitlement,138419,survey-text,2,191173,0.0-2.0,81995,group2,I believe one of my credit cards has been compromised.  Can I cancel the card or close the account?,M,Male,28,,high,institutional,M,5.538461538,1.68571319,4.134615385,1.749272635,5.326923077,1.353588605,5.480769231,1.162997894
4,high_entitlement,69867,survey-text,4,431270,0.0-4.0,21098,group2,"Someone has just stolen my credit card information and is using it illegally, kindly cancel the card for me.",D,Male,26,D,high,institutional,D,5.538461538,1.68571319,4.134615385,1.749272635,5.326923077,1.353588605,5.480769231,1.162997894
4,high_entitlement,78226,survey-text,8,413393,0.0-8.0,3378,group2,My credit card info has been stolen and he/she has already used 1000$ from it kindly block my card immediatly,D,Male,28,D,high,institutional,D,5.538461538,1.68571319,4.134615385,1.749272635,5.326923077,1.353588605,5.480769231,1.162997894
4,high_entitlement,87267,survey-text,8,412515,0.0-8.0,16483,group2,"I found someone misused my card and wased out my money. I need to cancel  my card can You help me out, how to cancel this.",M,Female,28,M,high,institutional,M,5.538461538,1.68571319,4.134615385,1.749272635,5.326923077,1.353588605,5.480769231,1.162997894
4,high_entitlement,19896,survey-text,9,320965,0.0-9.0,94617,group2,Can you cancel my credit card? I'm victim of identity theft.,M,Male,34,,high,institutional,M,5.538461538,1.68571319,4.134615385,1.749272635,5.326923077,1.353588605,5.480769231,1.162997894
4,high_entitlement,57775,survey-text,8,348861,0.0-8.0,27203,group2,I just checked my account and it looks like there's been some strange charges on it. Do you think you could cancel the card?,W,Male,27,EM,high,institutional,W,5.538461538,1.68571319,4.134615385,1.749272635,5.326923077,1.353588605,5.480769231,1.162997894
4,high_entitlement,50743,survey-text,4,140463,0.0-4.0,97848,group2,"Hi, it looks like someone stole my credit card information and spent $1000 on my card. Could you please cancel the card?",M,Female,35,,high,institutional,M,5.538461538,1.68571319,4.134615385,1.749272635,5.326923077,1.353588605,5.480769231,1.162997894
4,high_entitlement,62781,survey-text,4,286362,0.0-4.0,65324,group2,There have been many unauthorized charges on my credit card. I need to get the card cancelled and see what I need to do to get my money refunded back to my account.,D,Male,43,,high,institutional,D,5.538461538,1.68571319,4.134615385,1.749272635,5.326923077,1.353588605,5.480769231,1.162997894
4,high_entitlement,110304,survey-text,6,667677,0.0-6.0,79949,group2,"After reviewing my account information, I've noticed $1000 in fraudulent charges on my credit card and I am calling to cancel the card immediately. Are you the person I need to be speaking with to make this happen?",W,Male,35,,high,institutional,W,5.538461538,1.68571319,4.134615385,1.749272635,5.326923077,1.353588605,5.480769231,1.162997894
4,high_entitlement,58868,survey-text,8,410167,0.0-8.0,5333,group2,can you cancel my card,M,Female,30,,high,institutional,M,5.538461538,1.68571319,4.134615385,1.749272635,5.326923077,1.353588605,5.480769231,1.162997894
4,high_entitlement,17682,survey-text,9,184398,0.0-9.0,82481,group2,I need to report suspicious activity on my account and close my card.,D,Female,30,,high,institutional,D,5.538461538,1.68571319,4.134615385,1.749272635,5.326923077,1.353588605,5.480769231,1.162997894
4,high_entitlement,35536,survey-text,4,491716,0.0-4.0,61890,group2,Someone has stolen my credit card number. I need to dispute the most recent charges and get a replacement card.,D,Female,32,,high,institutional,D,5.538461538,1.68571319,4.134615385,1.749272635,5.326923077,1.353588605,5.480769231,1.162997894
4,high_entitlement,246125,survey-text,5,649610,0.0-5.0,29623,group2,Hello. I feel that someone has stolen my credit card info and is misusing it. I have been charged with $1000. I'll be grateful if you can cancel the card on an urgent basis.,W,Male,29,D,high,institutional,W,5.538461538,1.68571319,4.134615385,1.749272635,5.326923077,1.353588605,5.480769231,1.162997894
4,high_entitlement,109059,survey-text,2,166387,0.0-2.0,6322,group2,"So I am looking at my charges & it looks like my card info was stolen, so I need to know how to cancel it ASAP & how to get those charges reversed.",D,Female,37,,high,institutional,D,5.538461538,1.68571319,4.134615385,1.749272635,5.326923077,1.353588605,5.480769231,1.162997894
4,high_entitlement,60046,survey-text,7,263729,0.0-7.0,59374,group2,"Hi, I think somebody has committed fraud using my card. I see charges on here that aren't mine. Can you take a look at it, please?",M,Male,32,,high,institutional,M,5.538461538,1.68571319,4.134615385,1.749272635,5.326923077,1.353588605,5.480769231,1.162997894
4,high_entitlement,58178,survey-text,7,356590,0.0-7.0,79786,group2,"I need to cancel my card, someone's made unauthorized charges on it.",D,Female,42,,high,institutional,D,5.538461538,1.68571319,4.134615385,1.749272635,5.326923077,1.353588605,5.480769231,1.162997894
4,high_entitlement,51264,survey-text,4,187321,0.0-4.0,3590,group2,I believe my credit card information has been used without my approval and need to cancel the card as soon as possible,D,Female,47,,high,institutional,D,5.538461538,1.68571319,4.134615385,1.749272635,5.326923077,1.353588605,5.480769231,1.162997894
4,high_entitlement,46083,survey-text,7,360486,0.0-7.0,70965,group2,"Greetings, my card information has been stolen it seems. Could you deactivate my card? ",M,Male,23,,high,institutional,M,5.538461538,1.68571319,4.134615385,1.749272635,5.326923077,1.353588605,5.480769231,1.162997894
4,high_entitlement,37411,survey-text,7,398347,0.0-7.0,44058,group2,"""Hi, I've noticed charges placed on my card that weren't me, could you please cancel my card?""",M,Female,26,,high,institutional,M,5.538461538,1.68571319,4.134615385,1.749272635,5.326923077,1.353588605,5.480769231,1.162997894
4,high_entitlement,21963,survey-text,9,215387,0.0-9.0,637,group2,Hey could you cancel my credit card because I think someone stole my info.,M,Male,24,,high,institutional,M,5.538461538,1.68571319,4.134615385,1.749272635,5.326923077,1.353588605,5.480769231,1.162997894
4,high_entitlement,58264,survey-text,7,409091,0.0-7.0,80139,group2,SIR I WANT TO CANCEL MY CARD BECAUSE SOMEBODY HAS BEEN STEALING MONEY FROM MY CARD.,D,Male,36,,high,institutional,D,5.538461538,1.68571319,4.134615385,1.749272635,5.326923077,1.353588605,5.480769231,1.162997894
4,high_entitlement,52990,survey-text,3,172434,0.0-3.0,72733,group2,"hello, i've had several questionable charges on my credit card and believe that i have been a victim of fraud. can i request my card be cancelled?",M,Male,25,,high,institutional,M,5.538461538,1.68571319,4.134615385,1.749272635,5.326923077,1.353588605,5.480769231,1.162997894
4,high_entitlement,42870,survey-text,4,290987,0.0-4.0,27830,group2,Just make sure you cancel my card right away.,D,Female,37,D,high,institutional,D,5.538461538,1.68571319,4.134615385,1.749272635,5.326923077,1.353588605,5.480769231,1.162997894
4,low_entitlement,94252,survey-text,4,299568,0.0-4.0,6795,group1,"HI, I am Rajkumar. I don't need credit card now and forever, so kindly i request you to cancel my credit card.thank you",D,Male,25,,low,institutional,D,3.75,1.994673759,4.354166667,1.228899929,5.125,1.510600839,5.145833333,1.458497964
4,low_entitlement,38153,survey-text,2,87296,0.0-2.0,50623,group1,"""Good afternoon. I'd like to begin the process of cancelling my credit card. What are the steps I need to take, please?""",M,Female,36,,low,institutional,M,3.75,1.994673759,4.354166667,1.228899929,5.125,1.510600839,5.145833333,1.458497964
4,low_entitlement,97994,survey-text,6,570520,0.0-6.0,11719,group1,"I am sorry Miss/Mister, but I don't need any other cards. I wont use the card you sent anyway, is there any solution?",M,Male,32,EM,low,institutional,M,3.75,1.994673759,4.354166667,1.228899929,5.125,1.510600839,5.145833333,1.458497964
4,low_entitlement,231392,survey-text,9,949388,0.0-9.0,99924,group1,"I recieved your credit rewards through mail, there is no need for me to use the rewards, so cancel the card.",D,Male,43,,low,institutional,D,3.75,1.994673759,4.354166667,1.228899929,5.125,1.510600839,5.145833333,1.458497964
4,low_entitlement,46601,survey-text,5,284344,0.0-5.0,3382,group1,"Hi, can you help me with the cancellation of a rewards card?",M,Male,27,,low,institutional,M,3.75,1.994673759,4.354166667,1.228899929,5.125,1.510600839,5.145833333,1.458497964
4,low_entitlement,16225,survey-text,5,237758,0.0-5.0,82556,group1,Hi I'm looking to close a card.,D,Male,29,,low,institutional,D,3.75,1.994673759,4.354166667,1.228899929,5.125,1.510600839,5.145833333,1.458497964
4,low_entitlement,65416,survey-text,2,113735,0.0-2.0,61016,group1,"Hi, I need to cancel my rewards credit card because I received a new one.",D,Male,30,,low,institutional,D,3.75,1.994673759,4.354166667,1.228899929,5.125,1.510600839,5.145833333,1.458497964
4,low_entitlement,22837,survey-text,2,62772,0.0-2.0,18196,group1,"Hello,I would like to cancel my credit card.",D,Male,29,IS,low,institutional,D,3.75,1.994673759,4.354166667,1.228899929,5.125,1.510600839,5.145833333,1.458497964
4,low_entitlement,49017,survey-text,3,134392,0.0-3.0,21894,group1,I need to cancel my old car because I have my new one now. ,D,Female,44,IS,low,institutional,D,3.75,1.994673759,4.354166667,1.228899929,5.125,1.510600839,5.145833333,1.458497964
4,low_entitlement,20969,survey-text,9,381128,0.0-9.0,32506,group1,"Hi, I was hoping to cancel my old card please. I don't really use it anymore.",W,Male,27,IS,low,institutional,W,3.75,1.994673759,4.354166667,1.228899929,5.125,1.510600839,5.145833333,1.458497964
4,low_entitlement,24404,survey-text,3,154028,0.0-3.0,35325,group1,Hi there. I'm calling to cancel my card please.,D,Male,41,,low,institutional,D,3.75,1.994673759,4.354166667,1.228899929,5.125,1.510600839,5.145833333,1.458497964
4,low_entitlement,7530,survey-text,8,106154,0.0-8.0,74804,group1,Id like to cancel my card.,D,Male,31,,low,institutional,D,3.75,1.994673759,4.354166667,1.228899929,5.125,1.510600839,5.145833333,1.458497964
4,low_entitlement,60715,survey-text,4,537271,0.0-4.0,21490,group1,"hi, this is my credit card number. i already have credit card. so i don't want another one. please cancel it.",D,Male,27,D,low,institutional,D,3.75,1.994673759,4.354166667,1.228899929,5.125,1.510600839,5.145833333,1.458497964
4,low_entitlement,33006,survey-text,9,372249,0.0-9.0,16264,group1,"I would say, ""Can you please cancel that card?  I don't need it anymore.  Thanks.""",M,Male,30,M,low,institutional,M,3.75,1.994673759,4.354166667,1.228899929,5.125,1.510600839,5.145833333,1.458497964
4,low_entitlement,24810,survey-text,7,243606,0.0-7.0,27048,group1,I need to cancel this rewards credit card that I need longer need.,D,Female,42,IS,low,institutional,D,3.75,1.994673759,4.354166667,1.228899929,5.125,1.510600839,5.145833333,1.458497964
4,low_entitlement,26801,survey-text,8,547775,0.0-8.0,62299,group1,Hello. I'm calling to cancel my credit card.,D,Female,55,,low,institutional,D,3.75,1.994673759,4.354166667,1.228899929,5.125,1.510600839,5.145833333,1.458497964
4,low_entitlement,32672,survey-text,9,271319,0.0-9.0,10498,group1,"Please cancel my card. You already know who I am, so just do it.",D,Male,48,D,low,institutional,D,3.75,1.994673759,4.354166667,1.228899929,5.125,1.510600839,5.145833333,1.458497964
4,low_entitlement,36568,survey-text,7,256819,0.0-7.0,46504,group1,I want to cancel my card. ,D,Male,32,,low,institutional,D,3.75,1.994673759,4.354166667,1.228899929,5.125,1.510600839,5.145833333,1.458497964
4,low_entitlement,33773,survey-text,7,222595,0.0-7.0,24461,group1,"I need to cancel my card, then number is (number).",D,Male,47,D,low,institutional,D,3.75,1.994673759,4.354166667,1.228899929,5.125,1.510600839,5.145833333,1.458497964
4,low_entitlement,77518,survey-text,3,166331,0.0-3.0,63746,group1,Can you tell me if it is possible to cancel an account over the phone with you or can I do it online?,M,Male,59,,low,institutional,M,3.75,1.994673759,4.354166667,1.228899929,5.125,1.510600839,5.145833333,1.458497964
4,low_entitlement,64469,survey-text,3,171504,0.0-3.0,86538,group1,I would like to cancel my current card.,D,Male,35,,low,institutional,D,3.75,1.994673759,4.354166667,1.228899929,5.125,1.510600839,5.145833333,1.458497964
4,low_entitlement,15494,survey-text,7,122189,0.0-7.0,60475,group1,"I would like to cancel my card, please.",D,Male,43,,low,institutional,D,3.75,1.994673759,4.354166667,1.228899929,5.125,1.510600839,5.145833333,1.458497964
4,low_entitlement,54418,survey-text,7,206468,0.0-7.0,36913,group1, kindly can i get a replacement for my card,M,Male,30,,low,institutional,M,3.75,1.994673759,4.354166667,1.228899929,5.125,1.510600839,5.145833333,1.458497964
4,low_entitlement,32755,survey-text,2,92460,0.0-2.0,37109,group1,"Hello, I need to cancel my card.",D,Female,33,,low,institutional,D,3.75,1.994673759,4.354166667,1.228899929,5.125,1.510600839,5.145833333,1.458497964
4,low_entitlement,58061,survey-text,6,280015,0.0-6.0,34216,group1,"Hello, i would like to cancel the credit card that is arriving to me. Kindly help me in it.",D,Female,29,,low,institutional,D,3.75,1.994673759,4.354166667,1.228899929,5.125,1.510600839,5.145833333,1.458497964
4,low_entitlement,13465,survey-text,8,127210,0.0-8.0,20310,group1,i need to cancel my card,D,Male,33,IS,low,institutional,D,3.75,1.994673759,4.354166667,1.228899929,5.125,1.510600839,5.145833333,1.458497964
4,low_entitlement,50757,survey-text,2,106154,0.0-2.0,72957,group1,Good day! I would like to cancel my credit card. Is it possible to cancel it?,W,Male,40,,low,institutional,W,3.75,1.994673759,4.354166667,1.228899929,5.125,1.510600839,5.145833333,1.458497964
4,low_entitlement,21356,survey-text,7,200220,0.0-7.0,76092,group1,please cancel my card.,D,Male,53,,low,institutional,D,3.75,1.994673759,4.354166667,1.228899929,5.125,1.510600839,5.145833333,1.458497964
4,low_entitlement,9735,survey-text,4,62769,0.0-4.0,17117,group1,Can you cancel my card?,M,Male,31,M,low,institutional,M,3.75,1.994673759,4.354166667,1.228899929,5.125,1.510600839,5.145833333,1.458497964
4,low_entitlement,34595,survey-text,2,63378,0.0-2.0,32427,group1,"I no longer have a need for the card, Please cancel this card. Thank you",D,Male,48,D,low,institutional,D,3.75,1.994673759,4.354166667,1.228899929,5.125,1.510600839,5.145833333,1.458497964
4,low_entitlement,50319,survey-text,8,484333,0.0-8.0,20158,group1,I want to cancel the card and will you please help to proceed in this situation?,M,Male,47,M,low,institutional,M,3.75,1.994673759,4.354166667,1.228899929,5.125,1.510600839,5.145833333,1.458497964
4,low_entitlement,18662,survey-text,4,106090,0.0-4.0,19295,group1,Can you please help cancel the card?,M,Female,28,M,low,institutional,M,3.75,1.994673759,4.354166667,1.228899929,5.125,1.510600839,5.145833333,1.458497964
4,low_entitlement,107632,survey-text,3,229449,0.0-3.0,61815,group1,"Please cancel the card, It is not useful to me,since I have more credit card",D,Male,49,,low,institutional,D,3.75,1.994673759,4.354166667,1.228899929,5.125,1.510600839,5.145833333,1.458497964
4,low_entitlement,9572,survey-text,8,85161,0.0-8.0,64062,group1,I neeed to cancel this card,D,Male,36,,low,institutional,D,3.75,1.994673759,4.354166667,1.228899929,5.125,1.510600839,5.145833333,1.458497964
4,low_entitlement,73371,survey-text,7,711466,0.0-7.0,3558,group1,could you please cancel this credit card,M,Male,28,,low,institutional,M,3.75,1.994673759,4.354166667,1.228899929,5.125,1.510600839,5.145833333,1.458497964
4,low_entitlement,23993,survey-text,6,161891,0.0-6.0,72843,group1,Please cancel my credit card.,D,Female,32,,low,institutional,D,3.75,1.994673759,4.354166667,1.228899929,5.125,1.510600839,5.145833333,1.458497964
4,low_entitlement,65474,survey-text,4,279605,0.0-4.0,91014,group1,"Hi ma'am. I am needing to cancel my credit card, who do I speak to about that?",D,Female,32,,low,institutional,D,3.75,1.994673759,4.354166667,1.228899929,5.125,1.510600839,5.145833333,1.458497964
4,low_entitlement,11253,survey-text,5,73606,0.0-5.0,15835,group1,I want to cancel my card.,D,Male,34,IS,low,institutional,D,3.75,1.994673759,4.354166667,1.228899929,5.125,1.510600839,5.145833333,1.458497964
5,high_entitlement,28018,survey-text,5,205352,0.0-5.0,35325,group1,"Hi, I'm at 84 county rd. Someone has broken in",D,Male,41,,high,institutional,D,4.979166667,2.128725354,2.979166667,1.669368378,5.125,1.69636658,5.666666667,1.038274619
5,high_entitlement,12556,survey-text,3,47543,0.0-3.0,74804,group1,I need help! There's been a break in at _____.,D,Male,31,,high,institutional,D,4.979166667,2.128725354,2.979166667,1.669368378,5.125,1.69636658,5.666666667,1.038274619
5,high_entitlement,61280,survey-text,5,369134,0.0-5.0,20158,group1,"It seems some intruder arrived at my house , will you please do the needful to catch him?",M,Male,47,M,high,institutional,M,4.979166667,2.128725354,2.979166667,1.669368378,5.125,1.69636658,5.666666667,1.038274619
5,high_entitlement,184852,survey-text,7,677611,0.0-7.0,99924,group1,"somebody trying to enter my house, please help me by sending the police to my house",D,Male,43,,high,institutional,D,4.979166667,2.128725354,2.979166667,1.669368378,5.125,1.69636658,5.666666667,1.038274619
5,high_entitlement,65243,survey-text,9,499877,0.0-9.0,34216,group1,"Hello please help me, i got a strange sound in my house. Kindly come soon and save me.",D,Female,29,,high,institutional,D,4.979166667,2.128725354,2.979166667,1.669368378,5.125,1.69636658,5.666666667,1.038274619
5,high_entitlement,35460,survey-text,3,104706,0.0-3.0,72843,group1,"Please come fast, someone is in my house and I fear for my life!",D,Female,32,,high,institutional,D,4.979166667,2.128725354,2.979166667,1.669368378,5.125,1.69636658,5.666666667,1.038274619
5,high_entitlement,88610,survey-text,9,619159,0.0-9.0,61815,group1,I think stranger is in my house can you a send a cop for my help immediately?,M,Male,49,,high,institutional,M,4.979166667,2.128725354,2.979166667,1.669368378,5.125,1.69636658,5.666666667,1.038274619
5,high_entitlement,80044,survey-text,5,471521,0.0-5.0,11719,group1,"Hello 911, there's someone trying to enter my house, help me please.",D,Male,32,D,high,institutional,D,4.979166667,2.128725354,2.979166667,1.669368378,5.125,1.69636658,5.666666667,1.038274619
5,high_entitlement,40728,survey-text,7,315911,0.0-7.0,32506,group1,I think there's someone in my house! My security system went off and I heard a loud noise!,IS,Male,27,IS,high,institutional,IS,4.979166667,2.128725354,2.979166667,1.669368378,5.125,1.69636658,5.666666667,1.038274619
5,high_entitlement,94033,survey-text,2,122238,0.0-2.0,82556,group1,There's a break in at my house followed immediately by the address and let them know I am inside and if my door is currently locked.,D,Male,29,,high,institutional,D,4.979166667,2.128725354,2.979166667,1.669368378,5.125,1.69636658,5.666666667,1.038274619
5,high_entitlement,50656,survey-text,2,83711,0.0-2.0,27048,group1,There is an intruder in my house. I need help right away. Please send the police asap.,D,Female,42,D,high,institutional,D,4.979166667,2.128725354,2.979166667,1.669368378,5.125,1.69636658,5.666666667,1.038274619
5,high_entitlement,35464,survey-text,6,158737,0.0-6.0,19295,group1,"Please help immediately, there is an intruder in my house. Here is my address. ",D,Female,28,D,high,institutional,D,4.979166667,2.128725354,2.979166667,1.669368378,5.125,1.69636658,5.666666667,1.038274619
5,high_entitlement,33352,survey-text,5,161809,0.0-5.0,18196,group1,There has been an intrusion into my house.  Please send assistance IMMEDIATELY.,D,Male,29,D,high,institutional,D,4.979166667,2.128725354,2.979166667,1.669368378,5.125,1.69636658,5.666666667,1.038274619
5,high_entitlement,29278,survey-text,4,116633,0.0-4.0,32427,group1,Someone broke into my house right now. alrams are going off. send someone right away ,D,Male,48,D,high,institutional,D,4.979166667,2.128725354,2.979166667,1.669368378,5.125,1.69636658,5.666666667,1.038274619
5,high_entitlement,48189,survey-text,7,221696,0.0-7.0,50623,group1,"Help! The alarm is going off! There's someone in the house! Please! There's someone in the house! My address is 1234 Sunshine Drive. Help! Quickly, please send someone quickly!!",D,Female,36,,high,institutional,D,4.979166667,2.128725354,2.979166667,1.669368378,5.125,1.69636658,5.666666667,1.038274619
5,high_entitlement,28797,survey-text,3,135954,0.0-3.0,72957,group1,Help! Somebody intrude my house.,D,Male,40,,high,institutional,D,4.979166667,2.128725354,2.979166667,1.669368378,5.125,1.69636658,5.666666667,1.038274619
5,high_entitlement,22637,survey-text,8,230219,0.0-8.0,36913,group1,Someone please help!!,D,Male,30,,high,institutional,D,4.979166667,2.128725354,2.979166667,1.669368378,5.125,1.69636658,5.666666667,1.038274619
5,high_entitlement,66441,survey-text,5,347057,0.0-5.0,91014,group1,"Someone has broken into my home, can you send someone quickly?",M,Female,32,,high,institutional,M,4.979166667,2.128725354,2.979166667,1.669368378,5.125,1.69636658,5.666666667,1.038274619
5,high_entitlement,35895,survey-text,8,293716,0.0-8.0,46504,group1,"I need the police, there's someone in my house!",D,Male,32,,high,institutional,D,4.979166667,2.128725354,2.979166667,1.669368378,5.125,1.69636658,5.666666667,1.038274619
5,high_entitlement,66315,survey-text,8,778786,0.0-8.0,3558,group1,help me! ,D,Male,28,,high,institutional,D,4.979166667,2.128725354,2.979166667,1.669368378,5.125,1.69636658,5.666666667,1.038274619
5,high_entitlement,49997,survey-text,4,185399,0.0-4.0,21894,group1,There is an intruder in my house,IS,Female,44,IS,high,institutional,IS,4.979166667,2.128725354,2.979166667,1.669368378,5.125,1.69636658,5.666666667,1.038274619
5,high_entitlement,20502,survey-text,4,160157,0.0-4.0,37109,group1,I think someone just broke into my home.,D,Female,33,,high,institutional,D,4.979166667,2.128725354,2.979166667,1.669368378,5.125,1.69636658,5.666666667,1.038274619
5,high_entitlement,99901,survey-text,8,582964,0.0-8.0,63746,group1,I need help; there is an intruder in my home. I am upstairs and I can hear them downstairs. My address is...,D,Male,59,,high,institutional,D,4.979166667,2.128725354,2.979166667,1.669368378,5.125,1.69636658,5.666666667,1.038274619
5,high_entitlement,33619,survey-text,5,151175,0.0-5.0,24461,group1,Someone just broke into my house can you send the police.,M,Male,47,M,high,institutional,M,4.979166667,2.128725354,2.979166667,1.669368378,5.125,1.69636658,5.666666667,1.038274619
5,high_entitlement,16666,survey-text,5,80438,0.0-5.0,17117,group1,"Help, there's an intruder in my house!",D,Male,31,D,high,institutional,D,4.979166667,2.128725354,2.979166667,1.669368378,5.125,1.69636658,5.666666667,1.038274619
5,high_entitlement,24869,survey-text,6,185766,0.0-6.0,10498,group1,"Send help, there's an intruder!",D,Male,48,D,high,institutional,D,4.979166667,2.128725354,2.979166667,1.669368378,5.125,1.69636658,5.666666667,1.038274619
5,high_entitlement,14518,survey-text,4,81165,0.0-4.0,20310,group1,There is someone in my house,IS,Male,33,IS,high,institutional,IS,4.979166667,2.128725354,2.979166667,1.669368378,5.125,1.69636658,5.666666667,1.038274619
5,high_entitlement,106609,survey-text,9,655391,0.0-9.0,62299,group1,"This is an emergency! Someone just broke into my house! Please, I need help as soon as possible! My address is ...",D,Female,55,,high,institutional,D,4.979166667,2.128725354,2.979166667,1.669368378,5.125,1.69636658,5.666666667,1.038274619
5,high_entitlement,93085,survey-text,5,393657,0.0-5.0,6795,group1,"hello 911. i am in emergency, somebody attack or inside my house.i am danger so provide me back up.",D,Male,25,,high,institutional,D,4.979166667,2.128725354,2.979166667,1.669368378,5.125,1.69636658,5.666666667,1.038274619
5,high_entitlement,5708,survey-text,9,91875,0.0-9.0,64062,group1,i need help now!,D,Male,36,,high,institutional,D,4.979166667,2.128725354,2.979166667,1.669368378,5.125,1.69636658,5.666666667,1.038274619
5,high_entitlement,48108,survey-text,2,125305,0.0-2.0,16264,group1,"I would say, ""Help, there's an intruder and he's broken into my home.""",D,Male,30,D,high,institutional,D,4.979166667,2.128725354,2.979166667,1.669368378,5.125,1.69636658,5.666666667,1.038274619
5,high_entitlement,318454,survey-text,3,475551,0.0-3.0,21490,group1,"hello, I""m calling from here(place). I need help immediately can you send me doctor?",M,Male,27,M,high,institutional,M,4.979166667,2.128725354,2.979166667,1.669368378,5.125,1.69636658,5.666666667,1.038274619
5,high_entitlement,29162,survey-text,5,157220,0.0-5.0,76092,group1,"I have a break in, please send the police as quick as possible.",D,Male,53,,high,institutional,D,4.979166667,2.128725354,2.979166667,1.669368378,5.125,1.69636658,5.666666667,1.038274619
5,high_entitlement,23613,survey-text,5,90358,0.0-5.0,60475,group1,I'm at xxx address and I have an intruder in the house now.,D,Male,43,,high,institutional,D,4.979166667,2.128725354,2.979166667,1.669368378,5.125,1.69636658,5.666666667,1.038274619
5,high_entitlement,39125,survey-text,7,377811,0.0-7.0,3382,group1,Someone has broken into my house. This is the address...,IS,Male,27,,high,institutional,IS,4.979166667,2.128725354,2.979166667,1.669368378,5.125,1.69636658,5.666666667,1.038274619
5,high_entitlement,41780,survey-text,9,228724,0.0-9.0,15835,group1,"I've got an intruder, send the police. Alert them that I'm armed so they don't shoot me. I'm going to go take care of the intruder.",D,Male,34,D,high,institutional,D,4.979166667,2.128725354,2.979166667,1.669368378,5.125,1.69636658,5.666666667,1.038274619
5,high_entitlement,58228,survey-text,4,253050,0.0-4.0,61016,group1,"Please help, there is someone in the house and my alarm is ringing, what should I do?",D,Male,30,,high,institutional,D,4.979166667,2.128725354,2.979166667,1.669368378,5.125,1.69636658,5.666666667,1.038274619
5,low_entitlement,70132,survey-text,8,1230186,0.0-8.0,52915,group2,"My cat has been up there for hours and he's too scared to come down, and he's scared to death to come down. I've seen many cats who don't come down for days and become sick and dehydrated. I am also scared about the coyotes, if he comes down at night, the coyotes in this neighborhood will rip him apart. Please, please come help?",D,Female,48,,low,institutional,D,4.264150943,2.001450853,3.301886792,1.876831471,4.396226415,1.349353444,5.58490566,1.008310893
5,low_entitlement,18779,survey-text,4,96487,0.0-4.0,33002,group2,"My cat's stuck up a tree, can you send someone to help when they're available?",M,Female,27,M,low,institutional,M,4.264150943,2.001450853,3.301886792,1.876831471,4.396226415,1.349353444,5.58490566,1.008310893
5,low_entitlement,33396,survey-text,3,455177,0.0-3.0,61890,group2,My pet has climbed up a tree and I can't get him down. Is there someone who can help me with this?,M,Female,32,,low,institutional,M,4.264150943,2.001450853,3.301886792,1.876831471,4.396226415,1.349353444,5.58490566,1.008310893
5,low_entitlement,21385,survey-text,8,268708,0.0-8.0,28185,group2,"Hello, I need to get my cat down from a tree. Please send someone to (address).",D,Female,30,D,low,institutional,D,4.264150943,2.001450853,3.301886792,1.876831471,4.396226415,1.349353444,5.58490566,1.008310893
5,low_entitlement,77755,survey-text,2,116914,0.0-2.0,16483,group2,"Hi, there I need a help as my cat has stucked in tree.Need your assistance to save it. So could you come and help me out.",M,Female,28,M,low,institutional,M,4.264150943,2.001450853,3.301886792,1.876831471,4.396226415,1.349353444,5.58490566,1.008310893
5,low_entitlement,33934,survey-text,9,662678,0.0-9.0,21098,group2,"Hi, my cat is stuck on a tree, please help. ",D,Male,26,D,low,institutional,D,4.264150943,2.001450853,3.301886792,1.876831471,4.396226415,1.349353444,5.58490566,1.008310893
5,low_entitlement,51754,survey-text,6,262179,0.0-6.0,72733,group2,my cat has clambered on top of a tall tree and hasn't come down in almost an hour now. can i get some help?,M,Male,25,,low,institutional,M,4.264150943,2.001450853,3.301886792,1.876831471,4.396226415,1.349353444,5.58490566,1.008310893
5,low_entitlement,40191,survey-text,6,348923,0.0-6.0,81995,group2,I need help getting my cat down from a tree.,D,Male,28,,low,institutional,D,4.264150943,2.001450853,3.301886792,1.876831471,4.396226415,1.349353444,5.58490566,1.008310893
5,low_entitlement,40207,survey-text,3,207596,0.0-3.0,6322,group2,"So this is going to sound very Leave it to Beaver, but my dumb cat is actually stuck up a tree.",IS,Female,37,,low,institutional,IS,4.264150943,2.001450853,3.301886792,1.876831471,4.396226415,1.349353444,5.58490566,1.008310893
5,low_entitlement,27629,survey-text,7,439827,0.0-7.0,27830,group2,I need immediate assistance to get the cat down the tree.,D,Female,37,IS,low,institutional,D,4.264150943,2.001450853,3.301886792,1.876831471,4.396226415,1.349353444,5.58490566,1.008310893
5,low_entitlement,31368,survey-text,2,97751,0.0-2.0,59374,group2,"Hi, my cat is stuck up in a tree and I need help getting her down.",D,Male,32,,low,institutional,D,4.264150943,2.001450853,3.301886792,1.876831471,4.396226415,1.349353444,5.58490566,1.008310893
5,low_entitlement,56923,survey-text,9,471321,0.0-9.0,3378,group2,My pet cat has climbed on top of a tree and scared to come down please help me in getting him down.,D,Male,28,D,low,institutional,D,4.264150943,2.001450853,3.301886792,1.876831471,4.396226415,1.349353444,5.58490566,1.008310893
5,low_entitlement,76982,survey-text,2,122235,0.0-2.0,70965,group2,"Can you try to help me, my cat has climbed to the top of a tree and I don't know how to help him. Should I wait for someone or act myself? ",M,Male,23,,low,institutional,M,4.264150943,2.001450853,3.301886792,1.876831471,4.396226415,1.349353444,5.58490566,1.008310893
5,low_entitlement,35344,survey-text,9,365453,0.0-9.0,68135,group2,Can you send someone to help me get my cat out of a tree?,M,Female,50,,low,institutional,M,4.264150943,2.001450853,3.301886792,1.876831471,4.396226415,1.349353444,5.58490566,1.008310893
5,low_entitlement,101244,survey-text,4,402482,0.0-4.0,29623,group2,"I don't know why, but my cat has climbed up a tree. Please send some help ASAP. No, I'm not kidding. Thanks.",D,Male,29,D,low,institutional,D,4.264150943,2.001450853,3.301886792,1.876831471,4.396226415,1.349353444,5.58490566,1.008310893
5,low_entitlement,15128,survey-text,6,168859,0.0-6.0,71619,group2,Do you guys help get cats out of trees?,M,Female,43,,low,institutional,M,4.264150943,2.001450853,3.301886792,1.876831471,4.396226415,1.349353444,5.58490566,1.008310893
5,low_entitlement,26371,survey-text,9,400619,0.0-9.0,28470,group2,My cat is stuck on a tree and I can't get him down. Could you please send a fire truck.,M,Male,39,M,low,institutional,M,4.264150943,2.001450853,3.301886792,1.876831471,4.396226415,1.349353444,5.58490566,1.008310893
5,low_entitlement,32575,survey-text,6,256317,0.0-6.0,30463,group2,"Hi, my cat climbed up to the top of a tree and won't come down.  I have no idea what to do now, could you come and rescue it?",M,Male,29,M,low,institutional,M,4.264150943,2.001450853,3.301886792,1.876831471,4.396226415,1.349353444,5.58490566,1.008310893
5,low_entitlement,79678,survey-text,3,174436,0.0-3.0,6083,group2,"My cat has climbed a tree, cannot get down, and I am very afraid she will fall. Could you please send help?",M,Male,43,,low,institutional,M,4.264150943,2.001450853,3.301886792,1.876831471,4.396226415,1.349353444,5.58490566,1.008310893
5,low_entitlement,39548,survey-text,2,162579,0.0-2.0,65324,group2,"My cat has climb up a tree and will not come down. This is the address that I am located at, can you please send help.",M,Male,43,,low,institutional,M,4.264150943,2.001450853,3.301886792,1.876831471,4.396226415,1.349353444,5.58490566,1.008310893
5,low_entitlement,63627,survey-text,2,120905,0.0-2.0,3590,group2,My cat has climbed to the top of a tree in my back yard. Could you send someone to get him down?,M,Female,47,,low,institutional,M,4.264150943,2.001450853,3.301886792,1.876831471,4.396226415,1.349353444,5.58490566,1.008310893
5,low_entitlement,61262,survey-text,5,266118,0.0-5.0,79786,group2,"Hi, my cat is up a tree, could you please send someone to get it out?",M,Female,42,,low,institutional,M,4.264150943,2.001450853,3.301886792,1.876831471,4.396226415,1.349353444,5.58490566,1.008310893
5,low_entitlement,80039,survey-text,2,131191,0.0-2.0,79949,group2,Hi. Could you send the fire department to my home? My cat is stuck in a tree and refuses to come down.,M,Male,35,,low,institutional,M,4.264150943,2.001450853,3.301886792,1.876831471,4.396226415,1.349353444,5.58490566,1.008310893
5,low_entitlement,69165,survey-text,4,228117,0.0-4.0,80139,group2,HALLO 911 COULD YOU PLEASE COME TO MY HOUSE AND HELP ME IN RESCUING MY CAT WHO IS AT THE TOP OF THE TREE AND REFUSES TO COME DOWN.,D,Male,36,,low,institutional,D,4.264150943,2.001450853,3.301886792,1.876831471,4.396226415,1.349353444,5.58490566,1.008310893
5,low_entitlement,14846,survey-text,4,77587,0.0-4.0,82481,group2,I'm sorry to bother you but my cat is stuck in a tree.,D,Female,30,,low,institutional,D,4.264150943,2.001450853,3.301886792,1.876831471,4.396226415,1.349353444,5.58490566,1.008310893
5,low_entitlement,24763,survey-text,6,151182,0.0-6.0,28397,group2,"This sounds really dumb, but my cat is stuck in a tree.  Is there anyway you could send some help?",W,Male,34,EM,low,institutional,W,4.264150943,2.001450853,3.301886792,1.876831471,4.396226415,1.349353444,5.58490566,1.008310893
5,low_entitlement,31671,survey-text,9,381533,0.0-9.0,27203,group2,My cat won't come down out of the tree. I need help.,D,Male,27,IS,low,institutional,D,4.264150943,2.001450853,3.301886792,1.876831471,4.396226415,1.349353444,5.58490566,1.008310893
5,low_entitlement,85368,survey-text,5,285734,0.0-5.0,5333,group2,can i have some assistance,M,Female,30,,low,institutional,M,4.264150943,2.001450853,3.301886792,1.876831471,4.396226415,1.349353444,5.58490566,1.008310893
5,low_entitlement,12952,survey-text,6,165555,0.0-6.0,637,group2,Help my cat wont come down out of a tree can you guys help get him down?,M,Male,24,,low,institutional,M,4.264150943,2.001450853,3.301886792,1.876831471,4.396226415,1.349353444,5.58490566,1.008310893
5,low_entitlement,17341,survey-text,6,128866,0.0-6.0,94617,group2,Can you help me? My cat is stuck in a tree.,M,Male,34,,low,institutional,M,4.264150943,2.001450853,3.301886792,1.876831471,4.396226415,1.349353444,5.58490566,1.008310893
5,low_entitlement,32155,survey-text,2,66691,0.0-2.0,97848,group2,I need someone to help my cat get out of a tree.,D,Female,35,,low,institutional,D,4.264150943,2.001450853,3.301886792,1.876831471,4.396226415,1.349353444,5.58490566,1.008310893
5,low_entitlement,9800,survey-text,4,63678,0.0-4.0,81728,group2,I need to get my cat out of the tree,D,Male,28,,low,institutional,D,4.264150943,2.001450853,3.301886792,1.876831471,4.396226415,1.349353444,5.58490566,1.008310893
5,low_entitlement,33488,survey-text,9,541964,0.0-9.0,44058,group2,"""Hi, my cat is at the top of a tree and won't come down. Is there anyone there that can help me?""",W,Female,26,,low,institutional,W,4.264150943,2.001450853,3.301886792,1.876831471,4.396226415,1.349353444,5.58490566,1.008310893
5,low_entitlement,41689,survey-text,5,265840,0.0-5.0,51195,group2,My cat is stuck in the top of a tree and I need someone to help me get him down as soon as possible. Could you please send me some help?,M,Female,39,,low,institutional,M,4.264150943,2.001450853,3.301886792,1.876831471,4.396226415,1.349353444,5.58490566,1.008310893
6,high_entitlement,88986,survey-text,9,502507,0.0-9.0,16483,group2,"Hi I got some allergy , can I get an appointment to meet the doctor.",M,Female,28,M,high,institutional,M,5.924528302,1.806495296,3.320754717,2.146316925,5.339622642,1.300050239,2.452830189,2.162317469
6,high_entitlement,33992,survey-text,3,146656,0.0-3.0,68135,group2,I'm having an allergic reaction and I need to see the doctor now.,D,Female,50,,high,institutional,D,5.924528302,1.806495296,3.320754717,2.146316925,5.339622642,1.300050239,2.452830189,2.162317469
6,high_entitlement,46344,survey-text,2,118442,0.0-2.0,72733,group2,i am in need of urgent care. i ate food that contained eggplant and am having breathing troubles. please send help.,D,Male,25,,high,institutional,D,5.924528302,1.806495296,3.320754717,2.146316925,5.339622642,1.300050239,2.452830189,2.162317469
6,high_entitlement,71505,survey-text,3,240409,0.0-3.0,44058,group2,"""I can't breathe. I need to talk to the doctor now.""",D,Female,26,,high,institutional,D,5.924528302,1.806495296,3.320754717,2.146316925,5.339622642,1.300050239,2.452830189,2.162317469
6,high_entitlement,79948,survey-text,4,232297,0.0-4.0,3378,group2,I'm having breathing trouble due to allergy and need to know the probable time to visit the doctor?,D,Male,28,IS,high,institutional,D,5.924528302,1.806495296,3.320754717,2.146316925,5.339622642,1.300050239,2.452830189,2.162317469
6,high_entitlement,11609,survey-text,3,52875,0.0-3.0,81728,group2,I think I need to see the doctor,D,Male,28,,high,institutional,D,5.924528302,1.806495296,3.320754717,2.146316925,5.339622642,1.300050239,2.452830189,2.162317469
6,high_entitlement,49282,survey-text,6,313400,0.0-6.0,70965,group2,"I've eaten an eggplant accidentally and I'm allergic, please send some help.",D,Male,23,,high,institutional,D,5.924528302,1.806495296,3.320754717,2.146316925,5.339622642,1.300050239,2.452830189,2.162317469
6,high_entitlement,31300,survey-text,9,1262489,0.0-9.0,52915,group2,I'm having an allergic reaction? Help! Should I come to you or call 911 or what? ,M,Female,48,,high,institutional,M,5.924528302,1.806495296,3.320754717,2.146316925,5.339622642,1.300050239,2.452830189,2.162317469
6,high_entitlement,61723,survey-text,2,99269,0.0-2.0,5333,group2,is the doctor present,D,Female,30,,high,institutional,D,5.924528302,1.806495296,3.320754717,2.146316925,5.339622642,1.300050239,2.452830189,2.162317469
6,high_entitlement,16551,survey-text,3,76706,0.0-3.0,33002,group2,"I need a doctor, I'm having an allergic reaction.",D,Female,27,IS,high,institutional,D,5.924528302,1.806495296,3.320754717,2.146316925,5.339622642,1.300050239,2.452830189,2.162317469
6,high_entitlement,54724,survey-text,9,442634,0.0-9.0,79786,group2,"I'm having an allergic reaction, trouble breathing, I need to see someone as soon as possible.",D,Female,42,,high,institutional,D,5.924528302,1.806495296,3.320754717,2.146316925,5.339622642,1.300050239,2.452830189,2.162317469
