,stimNum,stimType,X,rt,url,trial_type,trial_index,time_elapsed,internal_node_id,subject,group,responses,type.x,answer,code,Gender,Age,condition,situation,formatting,type.y,mean_entitlement,sd_entitlement,mean_imposition,sd_imposition,mean_power,sd_power,mean_distance,sd_distance
1,1,high_entitlement,8,2180,,survey-multi-choice,8,90748,0.0-8.0,71391,group1,"{""Q0"":""Hey, help me move my stuff.""}",interaction,"Hey, help me move my stuff.",D,Male,29,high,interaction,D,interaction,5.25,1.850819255,3.6875,1.652287261,4.333333333,1.310080935,4.708333333,1.090741176
2,1,high_entitlement,11,2340,,survey-multi-choice,11,75378,0.0-11.0,34496,group1,"{""Q0"":""Could you help me move this stuff into my apartment?""}",interaction,Could you help me move this stuff into my apartment?,M,Male,27,high,interaction,M,interaction,5.25,1.850819255,3.6875,1.652287261,4.333333333,1.310080935,4.708333333,1.090741176
3,1,high_entitlement,7,19815,,survey-multi-choice,7,175495,0.0-7.0,61519,group1,"{""Q0"":""Hey, help me move my stuff.""}",interaction,"Hey, help me move my stuff.",D,Male,37,high,interaction,D,interaction,5.25,1.850819255,3.6875,1.652287261,4.333333333,1.310080935,4.708333333,1.090741176
4,1,high_entitlement,3,27882,,survey-multi-choice,3,130649,0.0-3.0,42017,group1,"{""Q0"":""Could you help me move this stuff into my apartment?""}",interaction,Could you help me move this stuff into my apartment?,M,Female,37,high,interaction,M,interaction,5.25,1.850819255,3.6875,1.652287261,4.333333333,1.310080935,4.708333333,1.090741176
5,1,high_entitlement,11,2597,,survey-multi-choice,11,261339,0.0-11.0,33903,group1,"{""Q0"":""Could you help me move this stuff into my apartment?""}",interaction,Could you help me move this stuff into my apartment?,M,Female,32,high,interaction,M,interaction,5.25,1.850819255,3.6875,1.652287261,4.333333333,1.310080935,4.708333333,1.090741176
6,1,high_entitlement,8,30336,,survey-multi-choice,8,389751,0.0-8.0,24718,group1,"{""Q0"":""Is there any way you could help move my stuff?""}",interaction,Is there any way you could help move my stuff?,W,Female,40,high,interaction,EM,interaction,5.25,1.850819255,3.6875,1.652287261,4.333333333,1.310080935,4.708333333,1.090741176
7,1,high_entitlement,11,9913,,survey-multi-choice,11,242127,0.0-11.0,56292,group1,"{""Q0"":""Could you help me move this stuff into my apartment?""}",interaction,Could you help me move this stuff into my apartment?,M,Female,31,high,interaction,M,interaction,5.25,1.850819255,3.6875,1.652287261,4.333333333,1.310080935,4.708333333,1.090741176
8,1,high_entitlement,7,36037,,survey-multi-choice,7,1056907,0.0-7.0,7044,group1,"{""Q0"":""Could you help me move this stuff into my apartment?""}",interaction,Could you help me move this stuff into my apartment?,M,Female,23,high,interaction,M,interaction,5.25,1.850819255,3.6875,1.652287261,4.333333333,1.310080935,4.708333333,1.090741176
9,1,high_entitlement,9,32102,,survey-multi-choice,9,254316,0.0-9.0,32379,group1,"{""Q0"":""Could you help me move this stuff into my apartment?""}",interaction,Could you help me move this stuff into my apartment?,M,Male,23,high,interaction,M,interaction,5.25,1.850819255,3.6875,1.652287261,4.333333333,1.310080935,4.708333333,1.090741176
10,1,high_entitlement,7,10370,,survey-multi-choice,7,110804,0.0-7.0,46162,group1,"{""Q0"":""Is there any way you could help move my stuff?""}",interaction,Is there any way you could help move my stuff?,W,Male,35,high,interaction,EM,interaction,5.25,1.850819255,3.6875,1.652287261,4.333333333,1.310080935,4.708333333,1.090741176
11,1,high_entitlement,5,11972,,survey-multi-choice,5,117044,0.0-5.0,57860,group1,"{""Q0"":""Could you help me move this stuff into my apartment?""}",interaction,Could you help me move this stuff into my apartment?,M,Male,35,high,interaction,M,interaction,5.25,1.850819255,3.6875,1.652287261,4.333333333,1.310080935,4.708333333,1.090741176
12,1,high_entitlement,5,6248,,survey-multi-choice,5,92809,0.0-5.0,45852,group1,"{""Q0"":""Hey, help me move my stuff.""}",interaction,"Hey, help me move my stuff.",D,Male,27,high,interaction,D,interaction,5.25,1.850819255,3.6875,1.652287261,4.333333333,1.310080935,4.708333333,1.090741176
13,1,high_entitlement,3,3085,,survey-multi-choice,3,68195,0.0-3.0,67700,group1,"{""Q0"":""Could you help me move this stuff into my apartment?""}",interaction,Could you help me move this stuff into my apartment?,M,Male,29,high,interaction,M,interaction,5.25,1.850819255,3.6875,1.652287261,4.333333333,1.310080935,4.708333333,1.090741176
14,1,high_entitlement,6,8071,,survey-multi-choice,6,80380,0.0-6.0,81283,group1,"{""Q0"":""Could you help me move this stuff into my apartment?""}",interaction,Could you help me move this stuff into my apartment?,M,Female,30,high,interaction,M,interaction,5.25,1.850819255,3.6875,1.652287261,4.333333333,1.310080935,4.708333333,1.090741176
15,1,high_entitlement,9,30398,,survey-multi-choice,9,356077,0.0-9.0,95061,group1,"{""Q0"":""Hey, help me move my stuff.""}",interaction,"Hey, help me move my stuff.",D,Female,33,high,interaction,D,interaction,5.25,1.850819255,3.6875,1.652287261,4.333333333,1.310080935,4.708333333,1.090741176
16,1,high_entitlement,4,2073,,survey-multi-choice,4,33199,0.0-4.0,11674,group1,"{""Q0"":""Hey, help me move my stuff.""}",interaction,"Hey, help me move my stuff.",D,Male,41,high,interaction,D,interaction,5.25,1.850819255,3.6875,1.652287261,4.333333333,1.310080935,4.708333333,1.090741176
17,1,high_entitlement,8,27227,,survey-multi-choice,8,291471,0.0-8.0,58332,group1,"{""Q0"":""Could you help me move this stuff into my apartment?""}",interaction,Could you help me move this stuff into my apartment?,M,Male,65,high,interaction,M,interaction,5.25,1.850819255,3.6875,1.652287261,4.333333333,1.310080935,4.708333333,1.090741176
18,1,high_entitlement,3,3885,,survey-multi-choice,3,30222,0.0-3.0,64887,group1,"{""Q0"":""Is there any way you could help move my stuff?""}",interaction,Is there any way you could help move my stuff?,W,Female,30,high,interaction,EM,interaction,5.25,1.850819255,3.6875,1.652287261,4.333333333,1.310080935,4.708333333,1.090741176
19,1,high_entitlement,7,11585,,survey-multi-choice,7,460013,0.0-7.0,94652,group1,"{""Q0"":""Could you help me move this stuff into my apartment?""}",interaction,Could you help me move this stuff into my apartment?,M,Female,58,high,interaction,M,interaction,5.25,1.850819255,3.6875,1.652287261,4.333333333,1.310080935,4.708333333,1.090741176
20,1,high_entitlement,6,9130,,survey-multi-choice,6,70966,0.0-6.0,20794,group1,"{""Q0"":""This desk is pretty heavy.""}",interaction,This desk is pretty heavy.,IS,Female,33,high,interaction,IS,interaction,5.25,1.850819255,3.6875,1.652287261,4.333333333,1.310080935,4.708333333,1.090741176
21,1,high_entitlement,4,16476,,survey-multi-choice,4,91692,0.0-4.0,2471,group1,"{""Q0"":""Could you help me move this stuff into my apartment?""}",interaction,Could you help me move this stuff into my apartment?,M,Female,59,high,interaction,M,interaction,5.25,1.850819255,3.6875,1.652287261,4.333333333,1.310080935,4.708333333,1.090741176
22,1,high_entitlement,11,12548,,survey-multi-choice,11,279457,0.0-11.0,42306,group1,"{""Q0"":""Could you help me move this stuff into my apartment?""}",interaction,Could you help me move this stuff into my apartment?,M,Female,49,high,interaction,M,interaction,5.25,1.850819255,3.6875,1.652287261,4.333333333,1.310080935,4.708333333,1.090741176
23,1,high_entitlement,10,8293,,survey-multi-choice,10,82334,0.0-10.0,89974,group1,"{""Q0"":""Is there any way you could help move my stuff?""}",interaction,Is there any way you could help move my stuff?,W,Female,25,high,interaction,EM,interaction,5.25,1.850819255,3.6875,1.652287261,4.333333333,1.310080935,4.708333333,1.090741176
24,1,high_entitlement,4,17406,,survey-multi-choice,4,77014,0.0-4.0,24041,group1,"{""Q0"":""Could you help me move this stuff into my apartment?""}",interaction,Could you help me move this stuff into my apartment?,M,Male,39,high,interaction,M,interaction,5.25,1.850819255,3.6875,1.652287261,4.333333333,1.310080935,4.708333333,1.090741176
25,1,high_entitlement,10,6261,,survey-multi-choice,10,535538,0.0-10.0,66682,group1,"{""Q0"":""Could you help me move this stuff into my apartment?""}",interaction,Could you help me move this stuff into my apartment?,M,Female,29,high,interaction,M,interaction,5.25,1.850819255,3.6875,1.652287261,4.333333333,1.310080935,4.708333333,1.090741176
26,1,high_entitlement,9,3189,,survey-multi-choice,9,79220,0.0-9.0,87326,group1,"{""Q0"":""Could you help me move this stuff into my apartment?""}",interaction,Could you help me move this stuff into my apartment?,M,Female,22,high,interaction,M,interaction,5.25,1.850819255,3.6875,1.652287261,4.333333333,1.310080935,4.708333333,1.090741176
27,1,high_entitlement,9,22230,,survey-multi-choice,9,236014,0.0-9.0,87155,group1,"{""Q0"":""Is there any way you could help move my stuff?""}",interaction,Is there any way you could help move my stuff?,W,Male,26,high,interaction,EM,interaction,5.25,1.850819255,3.6875,1.652287261,4.333333333,1.310080935,4.708333333,1.090741176
28,1,high_entitlement,5,26040,,survey-multi-choice,5,222722,0.0-5.0,80148,group1,"{""Q0"":""Could you help me move this stuff into my apartment?""}",interaction,Could you help me move this stuff into my apartment?,M,Female,33,high,interaction,M,interaction,5.25,1.850819255,3.6875,1.652287261,4.333333333,1.310080935,4.708333333,1.090741176
29,1,high_entitlement,8,1190,,survey-multi-choice,8,36093,0.0-8.0,97756,group1,"{""Q0"":""Could you help me move this stuff into my apartment?""}",interaction,Could you help me move this stuff into my apartment?,M,Male,31,high,interaction,M,interaction,5.25,1.850819255,3.6875,1.652287261,4.333333333,1.310080935,4.708333333,1.090741176
30,1,high_entitlement,6,1954,,survey-multi-choice,6,220859,0.0-6.0,8216,group1,"{""Q0"":""Could you help me move this stuff into my apartment?""}",interaction,Could you help me move this stuff into my apartment?,M,Male,29,high,interaction,M,interaction,5.25,1.850819255,3.6875,1.652287261,4.333333333,1.310080935,4.708333333,1.090741176
31,1,high_entitlement,8,11008,,survey-multi-choice,8,491940,0.0-8.0,90211,group1,"{""Q0"":""Could you help me move this stuff into my apartment?""}",interaction,Could you help me move this stuff into my apartment?,M,Female,27,high,interaction,M,interaction,5.25,1.850819255,3.6875,1.652287261,4.333333333,1.310080935,4.708333333,1.090741176
32,1,high_entitlement,2,31792,,survey-multi-choice,2,148511,0.0-2.0,16711,group1,"{""Q0"":""Is there any way you could help move my stuff?""}",interaction,Is there any way you could help move my stuff?,W,Female,42,high,interaction,EM,interaction,5.25,1.850819255,3.6875,1.652287261,4.333333333,1.310080935,4.708333333,1.090741176
33,1,high_entitlement,7,19882,,survey-multi-choice,7,93286,0.0-7.0,24995,group1,"{""Q0"":""Hey, help me move my stuff.""}",interaction,"Hey, help me move my stuff.",D,Male,30,high,interaction,D,interaction,5.25,1.850819255,3.6875,1.652287261,4.333333333,1.310080935,4.708333333,1.090741176
34,1,high_entitlement,7,29161,,survey-multi-choice,7,334901,0.0-7.0,55304,group1,"{""Q0"":""Hey, help me move my stuff.""}",interaction,"Hey, help me move my stuff.",D,Female,43,high,interaction,D,interaction,5.25,1.850819255,3.6875,1.652287261,4.333333333,1.310080935,4.708333333,1.090741176
35,1,low_entitlement,9,3617,,survey-multi-choice,9,132022,0.0-9.0,1977,group2,"{""Q0"":""This desk is pretty heavy.""}",interaction,This desk is pretty heavy.,IS,Male,33,low,interaction,IS,interaction,4.038461538,1.781842387,5.288461538,1.257706261,5.019230769,1.244444669,4.769230769,1.24641265
36,1,low_entitlement,2,31770,,survey-multi-choice,2,64922,0.0-2.0,87512,group2,"{""Q0"":""Could you help me move this stuff into my apartment?""}",interaction,Could you help me move this stuff into my apartment?,M,Male,38,low,interaction,M,interaction,4.038461538,1.781842387,5.288461538,1.257706261,5.019230769,1.244444669,4.769230769,1.24641265
37,1,low_entitlement,2,7490,,survey-multi-choice,2,45077,0.0-2.0,73328,group2,"{""Q0"":""Hey, help me move my stuff.""}",interaction,"Hey, help me move my stuff.",D,Male,25,low,interaction,D,interaction,4.038461538,1.781842387,5.288461538,1.257706261,5.019230769,1.244444669,4.769230769,1.24641265
38,1,low_entitlement,4,34268,,survey-multi-choice,4,161136,0.0-4.0,50863,group2,"{""Q0"":""Could you help me move this stuff into my apartment?""}",interaction,Could you help me move this stuff into my apartment?,M,Male,23,low,interaction,M,interaction,4.038461538,1.781842387,5.288461538,1.257706261,5.019230769,1.244444669,4.769230769,1.24641265
39,1,low_entitlement,11,15212,,survey-multi-choice,11,197409,0.0-11.0,71861,group2,"{""Q0"":""Could you help me move this stuff into my apartment?""}",interaction,Could you help me move this stuff into my apartment?,M,Male,30,low,interaction,M,interaction,4.038461538,1.781842387,5.288461538,1.257706261,5.019230769,1.244444669,4.769230769,1.24641265
40,1,low_entitlement,8,32151,,survey-multi-choice,8,361491,0.0-8.0,3324,group2,"{""Q0"":""Could you help me move this stuff into my apartment?""}",interaction,Could you help me move this stuff into my apartment?,M,Male,41,low,interaction,M,interaction,4.038461538,1.781842387,5.288461538,1.257706261,5.019230769,1.244444669,4.769230769,1.24641265
41,1,low_entitlement,3,40743,,survey-multi-choice,3,142094,0.0-3.0,8324,group2,"{""Q0"":""Could you help me move this stuff into my apartment?""}",interaction,Could you help me move this stuff into my apartment?,M,Female,30,low,interaction,M,interaction,4.038461538,1.781842387,5.288461538,1.257706261,5.019230769,1.244444669,4.769230769,1.24641265
42,1,low_entitlement,9,5205,,survey-multi-choice,9,159342,0.0-9.0,74734,group2,"{""Q0"":""Is there any way you could help move my stuff?""}",interaction,Is there any way you could help move my stuff?,W,Female,31,low,interaction,EM,interaction,4.038461538,1.781842387,5.288461538,1.257706261,5.019230769,1.244444669,4.769230769,1.24641265
43,1,low_entitlement,5,25844,,survey-multi-choice,5,98239,0.0-5.0,42146,group2,"{""Q0"":""Could you help me move this stuff into my apartment?""}",interaction,Could you help me move this stuff into my apartment?,M,Female,34,low,interaction,M,interaction,4.038461538,1.781842387,5.288461538,1.257706261,5.019230769,1.244444669,4.769230769,1.24641265
44,1,low_entitlement,9,31946,,survey-multi-choice,9,158614,0.0-9.0,40239,group2,"{""Q0"":""Is there any way you could help move my stuff?""}",interaction,Is there any way you could help move my stuff?,W,Female,56,low,interaction,EM,interaction,4.038461538,1.781842387,5.288461538,1.257706261,5.019230769,1.244444669,4.769230769,1.24641265
45,1,low_entitlement,10,11632,,survey-multi-choice,10,129351,0.0-10.0,45610,group2,"{""Q0"":""Is there any way you could help move my stuff?""}",interaction,Is there any way you could help move my stuff?,W,Female,21,low,interaction,EM,interaction,4.038461538,1.781842387,5.288461538,1.257706261,5.019230769,1.244444669,4.769230769,1.24641265
46,1,low_entitlement,10,15861,,survey-multi-choice,10,202516,0.0-10.0,5514,group2,"{""Q0"":""Is there any way you could help move my stuff?""}",interaction,Is there any way you could help move my stuff?,W,Female,47,low,interaction,EM,interaction,4.038461538,1.781842387,5.288461538,1.257706261,5.019230769,1.244444669,4.769230769,1.24641265
47,1,low_entitlement,2,4363,,survey-multi-choice,2,18967,0.0-2.0,13778,group2,"{""Q0"":""Is there any way you could help move my stuff?""}",interaction,Is there any way you could help move my stuff?,W,Male,37,low,interaction,EM,interaction,4.038461538,1.781842387,5.288461538,1.257706261,5.019230769,1.244444669,4.769230769,1.24641265
48,1,low_entitlement,5,9290,,survey-multi-choice,5,319072,0.0-5.0,1593,group2,"{""Q0"":""Could you help me move this stuff into my apartment?""}",interaction,Could you help me move this stuff into my apartment?,M,Male,25,low,interaction,M,interaction,4.038461538,1.781842387,5.288461538,1.257706261,5.019230769,1.244444669,4.769230769,1.24641265
49,1,low_entitlement,8,4306,,survey-multi-choice,8,100847,0.0-8.0,65743,group2,"{""Q0"":""This desk is pretty heavy.""}",interaction,This desk is pretty heavy.,IS,Male,26,low,interaction,IS,interaction,4.038461538,1.781842387,5.288461538,1.257706261,5.019230769,1.244444669,4.769230769,1.24641265
50,1,low_entitlement,4,29229,,survey-multi-choice,4,142794,0.0-4.0,97151,group2,"{""Q0"":""Could you help me move this stuff into my apartment?""}",interaction,Could you help me move this stuff into my apartment?,M,Male,27,low,interaction,M,interaction,4.038461538,1.781842387,5.288461538,1.257706261,5.019230769,1.244444669,4.769230769,1.24641265
51,1,low_entitlement,3,29720,,survey-multi-choice,3,279344,0.0-3.0,28542,group2,"{""Q0"":""Is there any way you could help move my stuff?""}",interaction,Is there any way you could help move my stuff?,W,Male,25,low,interaction,EM,interaction,4.038461538,1.781842387,5.288461538,1.257706261,5.019230769,1.244444669,4.769230769,1.24641265
52,1,low_entitlement,5,2481,,survey-multi-choice,5,88660,0.0-5.0,74166,group2,"{""Q0"":""Is there any way you could help move my stuff?""}",interaction,Is there any way you could help move my stuff?,W,Male,25,low,interaction,EM,interaction,4.038461538,1.781842387,5.288461538,1.257706261,5.019230769,1.244444669,4.769230769,1.24641265
53,1,low_entitlement,6,28987,,survey-multi-choice,6,199014,0.0-6.0,87775,group2,"{""Q0"":""Is there any way you could help move my stuff?""}",interaction,Is there any way you could help move my stuff?,W,Male,22,low,interaction,EM,interaction,4.038461538,1.781842387,5.288461538,1.257706261,5.019230769,1.244444669,4.769230769,1.24641265
54,1,low_entitlement,8,2668,,survey-multi-choice,8,102505,0.0-8.0,91548,group2,"{""Q0"":""Hey, help me move my stuff.""}",interaction,"Hey, help me move my stuff.",D,Male,26,low,interaction,D,interaction,4.038461538,1.781842387,5.288461538,1.257706261,5.019230769,1.244444669,4.769230769,1.24641265
55,1,low_entitlement,2,30376,,survey-multi-choice,2,73255,0.0-2.0,90609,group2,"{""Q0"":""Is there any way you could help move my stuff?""}",interaction,Is there any way you could help move my stuff?,W,Female,21,low,interaction,EM,interaction,4.038461538,1.781842387,5.288461538,1.257706261,5.019230769,1.244444669,4.769230769,1.24641265
56,1,low_entitlement,8,3569,,survey-multi-choice,8,89955,0.0-8.0,75614,group2,"{""Q0"":""Could you help me move this stuff into my apartment?""}",interaction,Could you help me move this stuff into my apartment?,M,Male,47,low,interaction,M,interaction,4.038461538,1.781842387,5.288461538,1.257706261,5.019230769,1.244444669,4.769230769,1.24641265
57,1,low_entitlement,2,19686,,survey-multi-choice,2,48075,0.0-2.0,55991,group2,"{""Q0"":""Is there any way you could help move my stuff?""}",interaction,Is there any way you could help move my stuff?,W,Female,27,low,interaction,EM,interaction,4.038461538,1.781842387,5.288461538,1.257706261,5.019230769,1.244444669,4.769230769,1.24641265
58,1,low_entitlement,5,18065,,survey-multi-choice,5,72676,0.0-5.0,22282,group2,"{""Q0"":""Could you help me move this stuff into my apartment?""}",interaction,Could you help me move this stuff into my apartment?,M,Male,43,low,interaction,M,interaction,4.038461538,1.781842387,5.288461538,1.257706261,5.019230769,1.244444669,4.769230769,1.24641265
59,1,low_entitlement,9,5446,,survey-multi-choice,9,97223,0.0-9.0,44710,group2,"{""Q0"":""Could you help me move this stuff into my apartment?""}",interaction,Could you help me move this stuff into my apartment?,M,Male,24,low,interaction,M,interaction,4.038461538,1.781842387,5.288461538,1.257706261,5.019230769,1.244444669,4.769230769,1.24641265
60,1,low_entitlement,4,22063,,survey-multi-choice,4,135949,0.0-4.0,90079,group2,"{""Q0"":""Is there any way you could help move my stuff?""}",interaction,Is there any way you could help move my stuff?,W,Male,39,low,interaction,EM,interaction,4.038461538,1.781842387,5.288461538,1.257706261,5.019230769,1.244444669,4.769230769,1.24641265
61,1,low_entitlement,8,8515,,survey-multi-choice,8,84987,0.0-8.0,74278,group2,"{""Q0"":""Hey, help me move my stuff.""}",interaction,"Hey, help me move my stuff.",D,Male,25,low,interaction,D,interaction,4.038461538,1.781842387,5.288461538,1.257706261,5.019230769,1.244444669,4.769230769,1.24641265
62,1,low_entitlement,7,17025,,survey-multi-choice,7,155889,0.0-7.0,19424,group2,"{""Q0"":""Is there any way you could help move my stuff?""}",interaction,Is there any way you could help move my stuff?,W,Female,52,low,interaction,EM,interaction,4.038461538,1.781842387,5.288461538,1.257706261,5.019230769,1.244444669,4.769230769,1.24641265
63,1,low_entitlement,8,1928,,survey-multi-choice,8,69859,0.0-8.0,83161,group2,"{""Q0"":""This desk is pretty heavy.""}",interaction,This desk is pretty heavy.,IS,Male,30,low,interaction,IS,interaction,4.038461538,1.781842387,5.288461538,1.257706261,5.019230769,1.244444669,4.769230769,1.24641265
64,1,low_entitlement,6,3649,,survey-multi-choice,6,218916,0.0-6.0,45177,group2,"{""Q0"":""Is there any way you could help move my stuff?""}",interaction,Is there any way you could help move my stuff?,W,Male,29,low,interaction,EM,interaction,4.038461538,1.781842387,5.288461538,1.257706261,5.019230769,1.244444669,4.769230769,1.24641265
65,1,low_entitlement,9,15302,,survey-multi-choice,9,239915,0.0-9.0,86881,group2,"{""Q0"":""Could you help me move this stuff into my apartment?""}",interaction,Could you help me move this stuff into my apartment?,M,Female,20,low,interaction,M,interaction,4.038461538,1.781842387,5.288461538,1.257706261,5.019230769,1.244444669,4.769230769,1.24641265
66,1,low_entitlement,5,14964,,survey-multi-choice,5,235059,0.0-5.0,48563,group2,"{""Q0"":""Is there any way you could help move my stuff?""}",interaction,Is there any way you could help move my stuff?,W,Male,25,low,interaction,EM,interaction,4.038461538,1.781842387,5.288461538,1.257706261,5.019230769,1.244444669,4.769230769,1.24641265
67,1,low_entitlement,8,21144,,survey-multi-choice,8,194188,0.0-8.0,7349,group2,"{""Q0"":""Could you help me move this stuff into my apartment?""}",interaction,Could you help me move this stuff into my apartment?,M,Male,33,low,interaction,M,interaction,4.038461538,1.781842387,5.288461538,1.257706261,5.019230769,1.244444669,4.769230769,1.24641265
68,1,low_entitlement,6,60737,,survey-multi-choice,6,275795,0.0-6.0,81470,group2,"{""Q0"":""Could you help me move this stuff into my apartment?""}",interaction,Could you help me move this stuff into my apartment?,M,Male,36,low,interaction,M,interaction,4.038461538,1.781842387,5.288461538,1.257706261,5.019230769,1.244444669,4.769230769,1.24641265
69,1,low_entitlement,10,17891,,survey-multi-choice,10,158510,0.0-10.0,25273,group2,"{""Q0"":""Is there any way you could help move my stuff?""}",interaction,Is there any way you could help move my stuff?,W,Male,48,low,interaction,EM,interaction,4.038461538,1.781842387,5.288461538,1.257706261,5.019230769,1.244444669,4.769230769,1.24641265
70,1,low_entitlement,8,22379,,survey-multi-choice,8,223234,0.0-8.0,28114,group2,"{""Q0"":""Could you help me move this stuff into my apartment?""}",interaction,Could you help me move this stuff into my apartment?,M,Female,40,low,interaction,M,interaction,4.038461538,1.781842387,5.288461538,1.257706261,5.019230769,1.244444669,4.769230769,1.24641265
71,1,low_entitlement,4,23100,,survey-multi-choice,4,141554,0.0-4.0,79859,group2,"{""Q0"":""Could you help me move this stuff into my apartment?""}",interaction,Could you help me move this stuff into my apartment?,M,Female,27,low,interaction,M,interaction,4.038461538,1.781842387,5.288461538,1.257706261,5.019230769,1.244444669,4.769230769,1.24641265
72,1,low_entitlement,6,18833,,survey-multi-choice,6,233357,0.0-6.0,94407,group2,"{""Q0"":""Is there any way you could help move my stuff?""}",interaction,Is there any way you could help move my stuff?,W,Male,27,low,interaction,EM,interaction,4.038461538,1.781842387,5.288461538,1.257706261,5.019230769,1.244444669,4.769230769,1.24641265
73,1,low_entitlement,4,14202,,survey-multi-choice,4,71131,0.0-4.0,98986,group2,"{""Q0"":""Is there any way you could help move my stuff?""}",interaction,Is there any way you could help move my stuff?,W,Female,34,low,interaction,EM,interaction,4.038461538,1.781842387,5.288461538,1.257706261,5.019230769,1.244444669,4.769230769,1.24641265
74,1,low_entitlement,9,22144,,survey-multi-choice,9,212555,0.0-9.0,9171,group2,"{""Q0"":""Could you help me move this stuff into my apartment?""}",interaction,Could you help me move this stuff into my apartment?,M,Male,43,low,interaction,M,interaction,4.038461538,1.781842387,5.288461538,1.257706261,5.019230769,1.244444669,4.769230769,1.24641265
75,1,low_entitlement,2,23281,,survey-multi-choice,2,127414,0.0-2.0,56171,group2,"{""Q0"":""Is there any way you could help move my stuff?""}",interaction,Is there any way you could help move my stuff?,W,Female,48,low,interaction,EM,interaction,4.038461538,1.781842387,5.288461538,1.257706261,5.019230769,1.244444669,4.769230769,1.24641265
76,1,low_entitlement,5,15689,,survey-multi-choice,5,104175,0.0-5.0,70928,group2,"{""Q0"":""Could you help me move this stuff into my apartment?""}",interaction,Could you help me move this stuff into my apartment?,M,Male,30,low,interaction,M,interaction,4.038461538,1.781842387,5.288461538,1.257706261,5.019230769,1.244444669,4.769230769,1.24641265
77,1,low_entitlement,6,29497,,survey-multi-choice,6,182735,0.0-6.0,85567,group2,"{""Q0"":""Could you help me move this stuff into my apartment?""}",interaction,Could you help me move this stuff into my apartment?,M,Male,33,low,interaction,M,interaction,4.038461538,1.781842387,5.288461538,1.257706261,5.019230769,1.244444669,4.769230769,1.24641265
78,1,low_entitlement,9,37698,,survey-multi-choice,9,375297,0.0-9.0,36333,group2,"{""Q0"":""Could you help me move this stuff into my apartment?""}",interaction,Could you help me move this stuff into my apartment?,M,Female,42,low,interaction,M,interaction,4.038461538,1.781842387,5.288461538,1.257706261,5.019230769,1.244444669,4.769230769,1.24641265
79,1,low_entitlement,3,89901,,survey-multi-choice,3,305501,0.0-3.0,76012,group2,"{""Q0"":""Is there any way you could help move my stuff?""}",interaction,Is there any way you could help move my stuff?,W,Male,27,low,interaction,EM,interaction,4.038461538,1.781842387,5.288461538,1.257706261,5.019230769,1.244444669,4.769230769,1.24641265
80,1,low_entitlement,9,19513,,survey-multi-choice,9,189869,0.0-9.0,43477,group2,"{""Q0"":""Could you help me move this stuff into my apartment?""}",interaction,Could you help me move this stuff into my apartment?,M,Male,26,low,interaction,M,interaction,4.038461538,1.781842387,5.288461538,1.257706261,5.019230769,1.244444669,4.769230769,1.24641265
81,1,low_entitlement,11,23368,,survey-multi-choice,11,456422,0.0-11.0,16670,group2,"{""Q0"":""Hey, help me move my stuff.""}",interaction,"Hey, help me move my stuff.",D,Male,30,low,interaction,D,interaction,4.038461538,1.781842387,5.288461538,1.257706261,5.019230769,1.244444669,4.769230769,1.24641265
82,10,high_entitlement,2,10009,,survey-multi-choice,2,44531,0.0-2.0,75614,group2,"{""Q0"":""I need you to drive me to the doctor.""}",urgency,I need you to drive me to the doctor.,D,Male,47,high,urgency,D,institution,5.924528302,1.806495296,3.320754717,2.146316925,5.339622642,1.300050239,2.452830189,2.162317469
83,10,high_entitlement,8,15141,,survey-multi-choice,8,245940,0.0-8.0,85567,group2,"{""Q0"":""I need you to drive me to the doctor.""}",urgency,I need you to drive me to the doctor.,D,Male,33,high,urgency,D,institution,5.924528302,1.806495296,3.320754717,2.146316925,5.339622642,1.300050239,2.452830189,2.162317469
84,10,high_entitlement,5,32517,,survey-multi-choice,5,252386,0.0-5.0,36333,group2,"{""Q0"":""Could you drive me to the doctor?""}",urgency,Could you drive me to the doctor?,M,Female,42,high,urgency,M,institution,5.924528302,1.806495296,3.320754717,2.146316925,5.339622642,1.300050239,2.452830189,2.162317469
85,10,high_entitlement,8,15589,,survey-multi-choice,8,129072,0.0-8.0,25273,group2,"{""Q0"":""I need you to drive me to the doctor.""}",urgency,I need you to drive me to the doctor.,D,Male,48,high,urgency,D,institution,5.924528302,1.806495296,3.320754717,2.146316925,5.339622642,1.300050239,2.452830189,2.162317469
86,10,high_entitlement,6,13082,,survey-multi-choice,6,152241,0.0-6.0,87512,group2,"{""Q0"":""Could you drive me to the doctor?""}",urgency,Could you drive me to the doctor?,M,Male,38,high,urgency,M,institution,5.924528302,1.806495296,3.320754717,2.146316925,5.339622642,1.300050239,2.452830189,2.162317469
87,10,high_entitlement,9,43142,,survey-multi-choice,9,366220,0.0-9.0,8324,group2,"{""Q0"":""I need you to drive me to the doctor.""}",urgency,I need you to drive me to the doctor.,D,Female,30,high,urgency,D,institution,5.924528302,1.806495296,3.320754717,2.146316925,5.339622642,1.300050239,2.452830189,2.162317469
88,10,high_entitlement,2,2836,,survey-multi-choice,2,36445,0.0-2.0,74278,group2,"{""Q0"":""I don't know how to get to the doctor.""}",urgency,I don't know how to get to the doctor.,IS,Male,25,high,urgency,IS,institution,5.924528302,1.806495296,3.320754717,2.146316925,5.339622642,1.300050239,2.452830189,2.162317469
89,10,high_entitlement,8,42360,,survey-multi-choice,8,370869,0.0-8.0,48563,group2,"{""Q0"":""I need you to drive me to the doctor.""}",urgency,I need you to drive me to the doctor.,D,Male,25,high,urgency,D,institution,5.924528302,1.806495296,3.320754717,2.146316925,5.339622642,1.300050239,2.452830189,2.162317469
90,10,high_entitlement,3,13234,,survey-multi-choice,3,97182,0.0-3.0,19424,group2,"{""Q0"":""I need you to drive me to the doctor.""}",urgency,I need you to drive me to the doctor.,D,Female,52,high,urgency,D,institution,5.924528302,1.806495296,3.320754717,2.146316925,5.339622642,1.300050239,2.452830189,2.162317469
91,10,high_entitlement,10,12953,,survey-multi-choice,10,180171,0.0-10.0,74166,group2,"{""Q0"":""Could you drive me to the doctor?""}",urgency,Could you drive me to the doctor?,M,Male,25,high,urgency,M,institution,5.924528302,1.806495296,3.320754717,2.146316925,5.339622642,1.300050239,2.452830189,2.162317469
92,10,high_entitlement,3,7788,,survey-multi-choice,3,201852,0.0-3.0,45177,group2,"{""Q0"":""I was wondering if you could give me a ride to the doctor?""}",urgency,I was wondering if you could give me a ride to the doctor?,W,Male,29,high,urgency,EM,institution,5.924528302,1.806495296,3.320754717,2.146316925,5.339622642,1.300050239,2.452830189,2.162317469
93,10,high_entitlement,9,54945,,survey-multi-choice,9,206999,0.0-9.0,90609,group2,"{""Q0"":""I need you to drive me to the doctor.""}",urgency,I need you to drive me to the doctor.,D,Female,21,high,urgency,D,institution,5.924528302,1.806495296,3.320754717,2.146316925,5.339622642,1.300050239,2.452830189,2.162317469
94,10,high_entitlement,7,3762,,survey-multi-choice,7,122410,0.0-7.0,1977,group2,"{""Q0"":""Could you drive me to the doctor?""}",urgency,Could you drive me to the doctor?,M,Male,33,high,urgency,M,institution,5.924528302,1.806495296,3.320754717,2.146316925,5.339622642,1.300050239,2.452830189,2.162317469
95,10,high_entitlement,11,3116,,survey-multi-choice,11,168333,0.0-11.0,74734,group2,"{""Q0"":""Could you drive me to the doctor?""}",urgency,Could you drive me to the doctor?,M,Female,31,high,urgency,M,institution,5.924528302,1.806495296,3.320754717,2.146316925,5.339622642,1.300050239,2.452830189,2.162317469
96,10,high_entitlement,10,26138,,survey-multi-choice,10,276645,0.0-10.0,56171,group2,"{""Q0"":""I need you to drive me to the doctor.""}",urgency,I need you to drive me to the doctor.,D,Female,48,high,urgency,D,institution,5.924528302,1.806495296,3.320754717,2.146316925,5.339622642,1.300050239,2.452830189,2.162317469
97,10,high_entitlement,2,22310,,survey-multi-choice,2,48212,0.0-2.0,45610,group2,"{""Q0"":""I need you to drive me to the doctor.""}",urgency,I need you to drive me to the doctor.,D,Female,21,high,urgency,D,institution,5.924528302,1.806495296,3.320754717,2.146316925,5.339622642,1.300050239,2.452830189,2.162317469
98,10,high_entitlement,9,3508,,survey-multi-choice,9,52989,0.0-9.0,13778,group2,"{""Q0"":""I was wondering if you could give me a ride to the doctor?""}",urgency,I was wondering if you could give me a ride to the doctor?,W,Male,37,high,urgency,EM,institution,5.924528302,1.806495296,3.320754717,2.146316925,5.339622642,1.300050239,2.452830189,2.162317469
99,10,high_entitlement,2,7986,,survey-multi-choice,2,50678,0.0-2.0,40239,group2,"{""Q0"":""I need you to drive me to the doctor.""}",urgency,I need you to drive me to the doctor.,D,Female,56,high,urgency,D,institution,5.924528302,1.806495296,3.320754717,2.146316925,5.339622642,1.300050239,2.452830189,2.162317469
100,10,high_entitlement,5,3210,,survey-multi-choice,5,292872,0.0-5.0,28542,group2,"{""Q0"":""I need you to drive me to the doctor.""}",urgency,I need you to drive me to the doctor.,D,Male,25,high,urgency,D,institution,5.924528302,1.806495296,3.320754717,2.146316925,5.339622642,1.300050239,2.452830189,2.162317469
101,10,high_entitlement,7,18056,,survey-multi-choice,7,152636,0.0-7.0,43477,group2,"{""Q0"":""I need you to drive me to the doctor.""}",urgency,I need you to drive me to the doctor.,D,Male,26,high,urgency,D,institution,5.924528302,1.806495296,3.320754717,2.146316925,5.339622642,1.300050239,2.452830189,2.162317469
102,10,high_entitlement,9,2698,,survey-multi-choice,9,341920,0.0-9.0,1593,group2,"{""Q0"":""I don't know how to get to the doctor.""}",urgency,I don't know how to get to the doctor.,IS,Male,25,high,urgency,IS,institution,5.924528302,1.806495296,3.320754717,2.146316925,5.339622642,1.300050239,2.452830189,2.162317469
103,10,high_entitlement,3,26623,,survey-multi-choice,3,139038,0.0-3.0,94407,group2,"{""Q0"":""Could you drive me to the doctor?""}",urgency,Could you drive me to the doctor?,M,Male,27,high,urgency,M,institution,5.924528302,1.806495296,3.320754717,2.146316925,5.339622642,1.300050239,2.452830189,2.162317469
104,10,high_entitlement,10,21030,,survey-multi-choice,10,271738,0.0-10.0,97151,group2,"{""Q0"":""Could you drive me to the doctor?""}",urgency,Could you drive me to the doctor?,M,Male,27,high,urgency,M,institution,5.924528302,1.806495296,3.320754717,2.146316925,5.339622642,1.300050239,2.452830189,2.162317469
105,10,high_entitlement,8,27676,,survey-multi-choice,8,223929,0.0-8.0,79859,group2,"{""Q0"":""Could you drive me to the doctor?""}",urgency,Could you drive me to the doctor?,M,Female,27,high,urgency,M,institution,5.924528302,1.806495296,3.320754717,2.146316925,5.339622642,1.300050239,2.452830189,2.162317469
106,10,high_entitlement,3,41805,,survey-multi-choice,3,90887,0.0-3.0,55991,group2,"{""Q0"":""I was wondering if you could give me a ride to the doctor?""}",urgency,I was wondering if you could give me a ride to the doctor?,W,Female,27,high,urgency,EM,institution,5.924528302,1.806495296,3.320754717,2.146316925,5.339622642,1.300050239,2.452830189,2.162317469
107,10,high_entitlement,6,8910,,survey-multi-choice,6,82588,0.0-6.0,22282,group2,"{""Q0"":""Could you drive me to the doctor?""}",urgency,Could you drive me to the doctor?,M,Male,43,high,urgency,M,institution,5.924528302,1.806495296,3.320754717,2.146316925,5.339622642,1.300050239,2.452830189,2.162317469
108,10,high_entitlement,9,8978,,survey-multi-choice,9,438438,0.0-9.0,76012,group2,"{""Q0"":""I need you to drive me to the doctor.""}",urgency,I need you to drive me to the doctor.,D,Male,27,high,urgency,D,institution,5.924528302,1.806495296,3.320754717,2.146316925,5.339622642,1.300050239,2.452830189,2.162317469
109,10,high_entitlement,5,22821,,survey-multi-choice,5,159778,0.0-5.0,90079,group2,"{""Q0"":""I need you to drive me to the doctor.""}",urgency,I need you to drive me to the doctor.,D,Male,39,high,urgency,D,institution,5.924528302,1.806495296,3.320754717,2.146316925,5.339622642,1.300050239,2.452830189,2.162317469
110,10,high_entitlement,4,32952,,survey-multi-choice,4,219996,0.0-4.0,3324,group2,"{""Q0"":""Could you drive me to the doctor?""}",urgency,Could you drive me to the doctor?,M,Male,41,high,urgency,M,institution,5.924528302,1.806495296,3.320754717,2.146316925,5.339622642,1.300050239,2.452830189,2.162317469
111,10,high_entitlement,4,15463,,survey-multi-choice,4,88488,0.0-4.0,71861,group2,"{""Q0"":""I was wondering if you could give me a ride to the doctor?""}",urgency,I was wondering if you could give me a ride to the doctor?,W,Male,30,high,urgency,EM,institution,5.924528302,1.806495296,3.320754717,2.146316925,5.339622642,1.300050239,2.452830189,2.162317469
112,10,high_entitlement,11,3153,,survey-multi-choice,11,111895,0.0-11.0,65743,group2,"{""Q0"":""I need you to drive me to the doctor.""}",urgency,I need you to drive me to the doctor.,D,Male,26,high,urgency,D,institution,5.924528302,1.806495296,3.320754717,2.146316925,5.339622642,1.300050239,2.452830189,2.162317469
113,10,high_entitlement,3,32129,,survey-multi-choice,3,112474,0.0-3.0,86881,group2,"{""Q0"":""I was wondering if you could give me a ride to the doctor?""}",urgency,I was wondering if you could give me a ride to the doctor?,W,Female,20,high,urgency,EM,institution,5.924528302,1.806495296,3.320754717,2.146316925,5.339622642,1.300050239,2.452830189,2.162317469
114,10,high_entitlement,8,7125,,survey-multi-choice,8,217562,0.0-8.0,87775,group2,"{""Q0"":""Could you drive me to the doctor?""}",urgency,Could you drive me to the doctor?,M,Male,22,high,urgency,M,institution,5.924528302,1.806495296,3.320754717,2.146316925,5.339622642,1.300050239,2.452830189,2.162317469
115,10,high_entitlement,8,20874,,survey-multi-choice,8,360065,0.0-8.0,81470,group2,"{""Q0"":""I need you to drive me to the doctor.""}",urgency,I need you to drive me to the doctor.,D,Male,36,high,urgency,D,institution,5.924528302,1.806495296,3.320754717,2.146316925,5.339622642,1.300050239,2.452830189,2.162317469
116,10,high_entitlement,4,14562,,survey-multi-choice,4,136542,0.0-4.0,7349,group2,"{""Q0"":""I need you to drive me to the doctor.""}",urgency,I need you to drive me to the doctor.,D,Male,33,high,urgency,D,institution,5.924528302,1.806495296,3.320754717,2.146316925,5.339622642,1.300050239,2.452830189,2.162317469
117,10,high_entitlement,5,9386,,survey-multi-choice,5,81568,0.0-5.0,98986,group2,"{""Q0"":""I need you to drive me to the doctor.""}",urgency,I need you to drive me to the doctor.,D,Female,34,high,urgency,D,institution,5.924528302,1.806495296,3.320754717,2.146316925,5.339622642,1.300050239,2.452830189,2.162317469
118,10,high_entitlement,11,2607,,survey-multi-choice,11,79974,0.0-11.0,83161,group2,"{""Q0"":""I was wondering if you could give me a ride to the doctor?""}",urgency,I was wondering if you could give me a ride to the doctor?,W,Male,30,high,urgency,EM,institution,5.924528302,1.806495296,3.320754717,2.146316925,5.339622642,1.300050239,2.452830189,2.162317469
119,10,high_entitlement,5,2116,,survey-multi-choice,5,90857,0.0-5.0,91548,group2,"{""Q0"":""I need you to drive me to the doctor.""}",urgency,I need you to drive me to the doctor.,D,Male,26,high,urgency,D,institution,5.924528302,1.806495296,3.320754717,2.146316925,5.339622642,1.300050239,2.452830189,2.162317469
120,10,high_entitlement,3,12718,,survey-multi-choice,3,61912,0.0-3.0,70928,group2,"{""Q0"":""Could you drive me to the doctor?""}",urgency,Could you drive me to the doctor?,M,Male,30,high,urgency,M,institution,5.924528302,1.806495296,3.320754717,2.146316925,5.339622642,1.300050239,2.452830189,2.162317469
121,10,high_entitlement,7,10071,,survey-multi-choice,7,124085,0.0-7.0,42146,group2,"{""Q0"":""Could you drive me to the doctor?""}",urgency,Could you drive me to the doctor?,M,Female,34,high,urgency,M,institution,5.924528302,1.806495296,3.320754717,2.146316925,5.339622642,1.300050239,2.452830189,2.162317469
122,10,high_entitlement,2,21513,,survey-multi-choice,2,37883,0.0-2.0,44710,group2,"{""Q0"":""I need you to drive me to the doctor.""}",urgency,I need you to drive me to the doctor.,D,Male,24,high,urgency,D,institution,5.924528302,1.806495296,3.320754717,2.146316925,5.339622642,1.300050239,2.452830189,2.162317469
123,10,high_entitlement,3,21931,,survey-multi-choice,3,102228,0.0-3.0,5514,group2,"{""Q0"":""I was wondering if you could give me a ride to the doctor?""}",urgency,I was wondering if you could give me a ride to the doctor?,W,Female,47,high,urgency,EM,institution,5.924528302,1.806495296,3.320754717,2.146316925,5.339622642,1.300050239,2.452830189,2.162317469
124,10,high_entitlement,4,21235,,survey-multi-choice,4,142487,0.0-4.0,28114,group2,"{""Q0"":""I need you to drive me to the doctor.""}",urgency,I need you to drive me to the doctor.,D,Female,40,high,urgency,D,institution,5.924528302,1.806495296,3.320754717,2.146316925,5.339622642,1.300050239,2.452830189,2.162317469
125,10,high_entitlement,10,1999,,survey-multi-choice,10,85793,0.0-10.0,73328,group2,"{""Q0"":""I was wondering if you could give me a ride to the doctor?""}",urgency,I was wondering if you could give me a ride to the doctor?,W,Male,25,high,urgency,EM,institution,5.924528302,1.806495296,3.320754717,2.146316925,5.339622642,1.300050239,2.452830189,2.162317469
126,10,high_entitlement,10,27807,,survey-multi-choice,10,432049,0.0-10.0,16670,group2,"{""Q0"":""I need you to drive me to the doctor.""}",urgency,I need you to drive me to the doctor.,D,Male,30,high,urgency,D,institution,5.924528302,1.806495296,3.320754717,2.146316925,5.339622642,1.300050239,2.452830189,2.162317469
127,10,high_entitlement,10,25613,,survey-multi-choice,10,239180,0.0-10.0,9171,group2,"{""Q0"":""I need you to drive me to the doctor.""}",urgency,I need you to drive me to the doctor.,D,Male,43,high,urgency,D,institution,5.924528302,1.806495296,3.320754717,2.146316925,5.339622642,1.300050239,2.452830189,2.162317469
128,10,high_entitlement,7,22709,,survey-multi-choice,7,224745,0.0-7.0,50863,group2,"{""Q0"":""I need you to drive me to the doctor.""}",urgency,I need you to drive me to the doctor.,D,Male,23,high,urgency,D,institution,5.924528302,1.806495296,3.320754717,2.146316925,5.339622642,1.300050239,2.452830189,2.162317469
129,10,low_entitlement,9,13850,,survey-multi-choice,9,317866,0.0-9.0,16711,group1,"{""Q0"":""Could you drive me to the doctor?""}",urgency,Could you drive me to the doctor?,M,Female,42,low,urgency,M,institution,5.791666667,1.761990332,2.666666667,1.766512773,4.468085106,1.717569869,2.145833333,2.031555146
130,10,low_entitlement,9,2340,,survey-multi-choice,9,94093,0.0-9.0,71391,group1,"{""Q0"":""I was wondering if you could give me a ride to the doctor?""}",urgency,I was wondering if you could give me a ride to the doctor?,W,Male,29,low,urgency,EM,institution,5.791666667,1.761990332,2.666666667,1.766512773,4.468085106,1.717569869,2.145833333,2.031555146
131,10,low_entitlement,9,22472,,survey-multi-choice,9,1102116,0.0-9.0,7044,group1,"{""Q0"":""Could you drive me to the doctor?""}",urgency,Could you drive me to the doctor?,M,Female,23,low,urgency,M,institution,5.791666667,1.761990332,2.666666667,1.766512773,4.468085106,1.717569869,2.145833333,2.031555146
132,10,low_entitlement,11,51996,,survey-multi-choice,11,430386,0.0-11.0,95061,group1,"{""Q0"":""I was wondering if you could give me a ride to the doctor?""}",urgency,I was wondering if you could give me a ride to the doctor?,W,Female,33,low,urgency,EM,institution,5.791666667,1.761990332,2.666666667,1.766512773,4.468085106,1.717569869,2.145833333,2.031555146
133,10,low_entitlement,8,4141,,survey-multi-choice,8,60626,0.0-8.0,34496,group1,"{""Q0"":""Could you drive me to the doctor?""}",urgency,Could you drive me to the doctor?,M,Male,27,low,urgency,M,institution,5.791666667,1.761990332,2.666666667,1.766512773,4.468085106,1.717569869,2.145833333,2.031555146
134,10,low_entitlement,8,14978,,survey-multi-choice,8,191488,0.0-8.0,61519,group1,"{""Q0"":""Could you drive me to the doctor?""}",urgency,Could you drive me to the doctor?,M,Male,37,low,urgency,M,institution,5.791666667,1.761990332,2.666666667,1.766512773,4.468085106,1.717569869,2.145833333,2.031555146
135,10,low_entitlement,4,44733,,survey-multi-choice,4,395268,0.0-4.0,90211,group1,"{""Q0"":""I need you to drive me to the doctor.""}",urgency,I need you to drive me to the doctor.,D,Female,27,low,urgency,D,institution,5.791666667,1.761990332,2.666666667,1.766512773,4.468085106,1.717569869,2.145833333,2.031555146
136,10,low_entitlement,6,7857,,survey-multi-choice,6,99416,0.0-6.0,46162,group1,"{""Q0"":""I was wondering if you could give me a ride to the doctor?""}",urgency,I was wondering if you could give me a ride to the doctor?,W,Male,35,low,urgency,EM,institution,5.791666667,1.761990332,2.666666667,1.766512773,4.468085106,1.717569869,2.145833333,2.031555146
137,10,low_entitlement,4,5911,,survey-multi-choice,4,64279,0.0-4.0,81283,group1,"{""Q0"":""I was wondering if you could give me a ride to the doctor?""}",urgency,I was wondering if you could give me a ride to the doctor?,W,Female,30,low,urgency,EM,institution,5.791666667,1.761990332,2.666666667,1.766512773,4.468085106,1.717569869,2.145833333,2.031555146
138,10,low_entitlement,8,2295,,survey-multi-choice,8,112169,0.0-8.0,45852,group1,"{""Q0"":""I was wondering if you could give me a ride to the doctor?""}",urgency,I was wondering if you could give me a ride to the doctor?,W,Male,27,low,urgency,EM,institution,5.791666667,1.761990332,2.666666667,1.766512773,4.468085106,1.717569869,2.145833333,2.031555146
139,10,low_entitlement,2,11254,,survey-multi-choice,2,25598,0.0-2.0,87326,group1,"{""Q0"":""Could you drive me to the doctor?""}",urgency,Could you drive me to the doctor?,M,Female,22,low,urgency,M,institution,5.791666667,1.761990332,2.666666667,1.766512773,4.468085106,1.717569869,2.145833333,2.031555146
140,10,low_entitlement,10,7567,,survey-multi-choice,10,262890,0.0-10.0,32379,group1,"{""Q0"":""Could you drive me to the doctor?""}",urgency,Could you drive me to the doctor?,M,Male,23,low,urgency,M,institution,5.791666667,1.761990332,2.666666667,1.766512773,4.468085106,1.717569869,2.145833333,2.031555146
141,10,low_entitlement,7,2868,,survey-multi-choice,7,243539,0.0-7.0,33903,group1,"{""Q0"":""Could you drive me to the doctor?""}",urgency,Could you drive me to the doctor?,M,Female,32,low,urgency,M,institution,5.791666667,1.761990332,2.666666667,1.766512773,4.468085106,1.717569869,2.145833333,2.031555146
142,10,low_entitlement,6,1745,,survey-multi-choice,6,38215,0.0-6.0,11674,group1,"{""Q0"":""I don't know how to get to the doctor.""}",urgency,I don't know how to get to the doctor.,IS,Male,41,low,urgency,IS,institution,5.791666667,1.761990332,2.666666667,1.766512773,4.468085106,1.717569869,2.145833333,2.031555146
143,10,low_entitlement,8,7212,,survey-multi-choice,8,127358,0.0-8.0,24041,group1,"{""Q0"":""I need you to drive me to the doctor.""}",urgency,I need you to drive me to the doctor.,D,Male,39,low,urgency,D,institution,5.791666667,1.761990332,2.666666667,1.766512773,4.468085106,1.717569869,2.145833333,2.031555146
144,10,low_entitlement,3,45853,,survey-multi-choice,3,282683,0.0-3.0,66682,group1,"{""Q0"":""I need you to drive me to the doctor.""}",urgency,I need you to drive me to the doctor.,D,Female,29,low,urgency,D,institution,5.791666667,1.761990332,2.666666667,1.766512773,4.468085106,1.717569869,2.145833333,2.031555146
145,10,low_entitlement,10,21740,,survey-multi-choice,10,269501,0.0-10.0,42017,group1,"{""Q0"":""Could you drive me to the doctor?""}",urgency,Could you drive me to the doctor?,M,Female,37,low,urgency,M,institution,5.791666667,1.761990332,2.666666667,1.766512773,4.468085106,1.717569869,2.145833333,2.031555146
146,10,low_entitlement,11,23901,,survey-multi-choice,11,373281,0.0-11.0,58332,group1,"{""Q0"":""Could you drive me to the doctor?""}",urgency,Could you drive me to the doctor?,M,Male,65,low,urgency,M,institution,5.791666667,1.761990332,2.666666667,1.766512773,4.468085106,1.717569869,2.145833333,2.031555146
147,10,low_entitlement,11,22137,,survey-multi-choice,11,211927,0.0-11.0,57860,group1,"{""Q0"":""Could you drive me to the doctor?""}",urgency,Could you drive me to the doctor?,M,Male,35,low,urgency,M,institution,5.791666667,1.761990332,2.666666667,1.766512773,4.468085106,1.717569869,2.145833333,2.031555146
148,10,low_entitlement,8,4730,,survey-multi-choice,8,90394,0.0-8.0,67700,group1,"{""Q0"":""I need you to drive me to the doctor.""}",urgency,I need you to drive me to the doctor.,D,Male,29,low,urgency,D,institution,5.791666667,1.761990332,2.666666667,1.766512773,4.468085106,1.717569869,2.145833333,2.031555146
149,10,low_entitlement,8,21058,,survey-multi-choice,8,356967,0.0-8.0,55304,group1,"{""Q0"":""Could you drive me to the doctor?""}",urgency,Could you drive me to the doctor?,M,Female,43,low,urgency,M,institution,5.791666667,1.761990332,2.666666667,1.766512773,4.468085106,1.717569869,2.145833333,2.031555146
150,10,low_entitlement,7,13042,,survey-multi-choice,7,191392,0.0-7.0,87155,group1,"{""Q0"":""Could you drive me to the doctor?""}",urgency,Could you drive me to the doctor?,M,Male,26,low,urgency,M,institution,5.791666667,1.761990332,2.666666667,1.766512773,4.468085106,1.717569869,2.145833333,2.031555146
151,10,low_entitlement,8,18060,,survey-multi-choice,8,295067,0.0-8.0,80148,group1,"{""Q0"":""Could you drive me to the doctor?""}",urgency,Could you drive me to the doctor?,M,Female,33,low,urgency,M,institution,5.791666667,1.761990332,2.666666667,1.766512773,4.468085106,1.717569869,2.145833333,2.031555146
152,10,low_entitlement,11,3422,,survey-multi-choice,11,57222,0.0-11.0,64887,group1,"{""Q0"":""I need you to drive me to the doctor.""}",urgency,I need you to drive me to the doctor.,D,Female,30,low,urgency,D,institution,5.791666667,1.761990332,2.666666667,1.766512773,4.468085106,1.717569869,2.145833333,2.031555146
153,10,low_entitlement,10,7026,,survey-multi-choice,10,119074,0.0-10.0,24995,group1,"{""Q0"":""Could you drive me to the doctor?""}",urgency,Could you drive me to the doctor?,M,Male,30,low,urgency,M,institution,5.791666667,1.761990332,2.666666667,1.766512773,4.468085106,1.717569869,2.145833333,2.031555146
154,10,low_entitlement,10,7174,,survey-multi-choice,10,486844,0.0-10.0,94652,group1,"{""Q0"":""I was wondering if you could give me a ride to the doctor?""}",urgency,I was wondering if you could give me a ride to the doctor?,W,Female,58,low,urgency,EM,institution,5.791666667,1.761990332,2.666666667,1.766512773,4.468085106,1.717569869,2.145833333,2.031555146
155,10,low_entitlement,2,11285,,survey-multi-choice,2,292716,0.0-2.0,24718,group1,"{""Q0"":""I was wondering if you could give me a ride to the doctor?""}",urgency,I was wondering if you could give me a ride to the doctor?,W,Female,40,low,urgency,EM,institution,5.791666667,1.761990332,2.666666667,1.766512773,4.468085106,1.717569869,2.145833333,2.031555146
156,10,low_entitlement,9,1382,,survey-multi-choice,9,38477,0.0-9.0,97756,group1,"{""Q0"":""Could you drive me to the doctor?""}",urgency,Could you drive me to the doctor?,M,Male,31,low,urgency,M,institution,5.791666667,1.761990332,2.666666667,1.766512773,4.468085106,1.717569869,2.145833333,2.031555146
157,10,low_entitlement,2,15632,,survey-multi-choice,2,61445,0.0-2.0,2471,group1,"{""Q0"":""I was wondering if you could give me a ride to the doctor?""}",urgency,I was wondering if you could give me a ride to the doctor?,W,Female,59,low,urgency,EM,institution,5.791666667,1.761990332,2.666666667,1.766512773,4.468085106,1.717569869,2.145833333,2.031555146
158,10,low_entitlement,8,4076,,survey-multi-choice,8,84965,0.0-8.0,20794,group1,"{""Q0"":""I was wondering if you could give me a ride to the doctor?""}",urgency,I was wondering if you could give me a ride to the doctor?,W,Female,33,low,urgency,EM,institution,5.791666667,1.761990332,2.666666667,1.766512773,4.468085106,1.717569869,2.145833333,2.031555146
159,10,low_entitlement,10,7249,,survey-multi-choice,10,231201,0.0-10.0,56292,group1,"{""Q0"":""I was wondering if you could give me a ride to the doctor?""}",urgency,I was wondering if you could give me a ride to the doctor?,W,Female,31,low,urgency,EM,institution,5.791666667,1.761990332,2.666666667,1.766512773,4.468085106,1.717569869,2.145833333,2.031555146
160,10,low_entitlement,3,6602,,survey-multi-choice,3,33263,0.0-3.0,89974,group1,"{""Q0"":""Could you drive me to the doctor?""}",urgency,Could you drive me to the doctor?,M,Female,25,low,urgency,M,institution,5.791666667,1.761990332,2.666666667,1.766512773,4.468085106,1.717569869,2.145833333,2.031555146
161,10,low_entitlement,3,74655,,survey-multi-choice,3,209148,0.0-3.0,8216,group1,"{""Q0"":""Could you drive me to the doctor?""}",urgency,Could you drive me to the doctor?,M,Male,29,low,urgency,M,institution,5.791666667,1.761990332,2.666666667,1.766512773,4.468085106,1.717569869,2.145833333,2.031555146
162,10,low_entitlement,3,37290,,survey-multi-choice,3,115533,0.0-3.0,42306,group1,"{""Q0"":""Could you drive me to the doctor?""}",urgency,Could you drive me to the doctor?,M,Female,49,low,urgency,M,institution,5.791666667,1.761990332,2.666666667,1.766512773,4.468085106,1.717569869,2.145833333,2.031555146
163,2,high_entitlement,10,4118,,survey-multi-choice,10,137148,0.0-10.0,1977,group2,"{""Q0"":""Can you help me out with the rent?""}",interaction,Can you help me out with the rent?,M,Male,33,high,interaction,M,interaction,5.622641509,1.913780141,4.830188679,1.553356775,4.79245283,1.633289396,5.20754717,1.245893108
164,2,high_entitlement,6,13749,,survey-multi-choice,6,113001,0.0-6.0,42146,group2,"{""Q0"":""Would it be at all possible to help me out with the rent?""}",interaction,Would it be at all possible to help me out with the rent?,W,Female,34,high,interaction,EM,interaction,5.622641509,1.913780141,4.830188679,1.553356775,4.79245283,1.633289396,5.20754717,1.245893108
165,2,high_entitlement,11,12241,,survey-multi-choice,11,215775,0.0-11.0,5514,group2,"{""Q0"":""Would it be at all possible to help me out with the rent?""}",interaction,Would it be at all possible to help me out with the rent?,W,Female,47,high,interaction,EM,interaction,5.622641509,1.913780141,4.830188679,1.553356775,4.79245283,1.633289396,5.20754717,1.245893108
166,2,high_entitlement,10,13650,,survey-multi-choice,10,173269,0.0-10.0,40239,group2,"{""Q0"":""I'm short on cash this month, and rent is coming up.""}",interaction,"I'm short on cash this month, and rent is coming up.",IS,Female,56,high,interaction,IS,interaction,5.622641509,1.913780141,4.830188679,1.553356775,4.79245283,1.633289396,5.20754717,1.245893108
167,2,high_entitlement,9,19887,,survey-multi-choice,9,391766,0.0-9.0,48563,group2,"{""Q0"":""Can you help me out with the rent?""}",interaction,Can you help me out with the rent?,M,Male,25,high,interaction,M,interaction,5.622641509,1.913780141,4.830188679,1.553356775,4.79245283,1.633289396,5.20754717,1.245893108
168,2,high_entitlement,6,11687,,survey-multi-choice,6,133572,0.0-6.0,43477,group2,"{""Q0"":""Can you help me out with the rent?""}",interaction,Can you help me out with the rent?,M,Male,26,high,interaction,M,interaction,5.622641509,1.913780141,4.830188679,1.553356775,4.79245283,1.633289396,5.20754717,1.245893108
169,2,high_entitlement,6,30825,,survey-multi-choice,6,284227,0.0-6.0,36333,group2,"{""Q0"":""Can you help me out with the rent?""}",interaction,Can you help me out with the rent?,M,Female,42,high,interaction,M,interaction,5.622641509,1.913780141,4.830188679,1.553356775,4.79245283,1.633289396,5.20754717,1.245893108
170,2,high_entitlement,9,14991,,survey-multi-choice,9,167521,0.0-9.0,71861,group2,"{""Q0"":""I'm short on cash this month, and rent is coming up.""}",interaction,"I'm short on cash this month, and rent is coming up.",IS,Male,30,high,interaction,IS,interaction,5.622641509,1.913780141,4.830188679,1.553356775,4.79245283,1.633289396,5.20754717,1.245893108
171,2,high_entitlement,10,10921,,survey-multi-choice,10,230318,0.0-10.0,7349,group2,"{""Q0"":""I'm short on cash this month, and rent is coming up.""}",interaction,"I'm short on cash this month, and rent is coming up.",IS,Male,33,high,interaction,IS,interaction,5.622641509,1.913780141,4.830188679,1.553356775,4.79245283,1.633289396,5.20754717,1.245893108
172,2,high_entitlement,9,1881,,survey-multi-choice,9,103735,0.0-9.0,65743,group2,"{""Q0"":""Would it be at all possible to help me out with the rent?""}",interaction,Would it be at all possible to help me out with the rent?,W,Male,26,high,interaction,EM,interaction,5.622641509,1.913780141,4.830188679,1.553356775,4.79245283,1.633289396,5.20754717,1.245893108
173,2,high_entitlement,4,6466,,survey-multi-choice,4,209324,0.0-4.0,45177,group2,"{""Q0"":""Would it be at all possible to help me out with the rent?""}",interaction,Would it be at all possible to help me out with the rent?,W,Male,29,high,interaction,EM,interaction,5.622641509,1.913780141,4.830188679,1.553356775,4.79245283,1.633289396,5.20754717,1.245893108
174,2,high_entitlement,6,1740,,survey-multi-choice,6,42478,0.0-6.0,13778,group2,"{""Q0"":""I'm short on cash this month, and rent is coming up.""}",interaction,"I'm short on cash this month, and rent is coming up.",IS,Male,37,high,interaction,IS,interaction,5.622641509,1.913780141,4.830188679,1.553356775,4.79245283,1.633289396,5.20754717,1.245893108
175,2,high_entitlement,10,9115,,survey-multi-choice,10,234835,0.0-10.0,87775,group2,"{""Q0"":""Can you help me out with the rent?""}",interaction,Can you help me out with the rent?,M,Male,22,high,interaction,M,interaction,5.622641509,1.913780141,4.830188679,1.553356775,4.79245283,1.633289396,5.20754717,1.245893108
176,2,high_entitlement,6,3580,,survey-multi-choice,6,76622,0.0-6.0,44710,group2,"{""Q0"":""Would it be at all possible to help me out with the rent?""}",interaction,Would it be at all possible to help me out with the rent?,W,Male,24,high,interaction,EM,interaction,5.622641509,1.913780141,4.830188679,1.553356775,4.79245283,1.633289396,5.20754717,1.245893108
177,2,high_entitlement,7,23034,,survey-multi-choice,7,328331,0.0-7.0,3324,group2,"{""Q0"":""Can you help me out with the rent?""}",interaction,Can you help me out with the rent?,M,Male,41,high,interaction,M,interaction,5.622641509,1.913780141,4.830188679,1.553356775,4.79245283,1.633289396,5.20754717,1.245893108
178,2,high_entitlement,5,10650,,survey-multi-choice,5,75627,0.0-5.0,45610,group2,"{""Q0"":""Would it be at all possible to help me out with the rent?""}",interaction,Would it be at all possible to help me out with the rent?,W,Female,21,high,interaction,EM,interaction,5.622641509,1.913780141,4.830188679,1.553356775,4.79245283,1.633289396,5.20754717,1.245893108
179,2,high_entitlement,3,23677,,survey-multi-choice,3,125864,0.0-3.0,50863,group2,"{""Q0"":""Would it be at all possible to help me out with the rent?""}",interaction,Would it be at all possible to help me out with the rent?,W,Male,23,high,interaction,EM,interaction,5.622641509,1.913780141,4.830188679,1.553356775,4.79245283,1.633289396,5.20754717,1.245893108
180,2,high_entitlement,4,15377,,survey-multi-choice,4,107269,0.0-4.0,55991,group2,"{""Q0"":""Would it be at all possible to help me out with the rent?""}",interaction,Would it be at all possible to help me out with the rent?,W,Female,27,high,interaction,EM,interaction,5.622641509,1.913780141,4.830188679,1.553356775,4.79245283,1.633289396,5.20754717,1.245893108
181,2,high_entitlement,4,12785,,survey-multi-choice,4,319298,0.0-4.0,76012,group2,"{""Q0"":""Can you help me out with the rent?""}",interaction,Can you help me out with the rent?,M,Male,27,high,interaction,M,interaction,5.622641509,1.913780141,4.830188679,1.553356775,4.79245283,1.633289396,5.20754717,1.245893108
182,2,high_entitlement,11,18067,,survey-multi-choice,11,286330,0.0-11.0,85567,group2,"{""Q0"":""I need you to cover my rent this month.""}",interaction,I need you to cover my rent this month.,D,Male,33,high,interaction,D,interaction,5.622641509,1.913780141,4.830188679,1.553356775,4.79245283,1.633289396,5.20754717,1.245893108
183,2,high_entitlement,9,15136,,survey-multi-choice,9,249702,0.0-9.0,97151,group2,"{""Q0"":""Would it be at all possible to help me out with the rent?""}",interaction,Would it be at all possible to help me out with the rent?,W,Male,27,high,interaction,EM,interaction,5.622641509,1.913780141,4.830188679,1.553356775,4.79245283,1.633289396,5.20754717,1.245893108
184,2,high_entitlement,3,21331,,survey-multi-choice,3,117451,0.0-3.0,79859,group2,"{""Q0"":""Can you help me out with the rent?""}",interaction,Can you help me out with the rent?,M,Female,27,high,interaction,M,interaction,5.622641509,1.913780141,4.830188679,1.553356775,4.79245283,1.633289396,5.20754717,1.245893108
185,2,high_entitlement,3,4323,,survey-multi-choice,3,68858,0.0-3.0,91548,group2,"{""Q0"":""Can you help me out with the rent?""}",interaction,Can you help me out with the rent?,M,Male,26,high,interaction,M,interaction,5.622641509,1.913780141,4.830188679,1.553356775,4.79245283,1.633289396,5.20754717,1.245893108
186,2,high_entitlement,10,9212,,survey-multi-choice,10,242898,0.0-10.0,28114,group2,"{""Q0"":""Can you help me out with the rent?""}",interaction,Can you help me out with the rent?,M,Female,40,high,interaction,M,interaction,5.622641509,1.913780141,4.830188679,1.553356775,4.79245283,1.633289396,5.20754717,1.245893108
187,2,high_entitlement,8,15249,,survey-multi-choice,8,218778,0.0-8.0,90079,group2,"{""Q0"":""Would it be at all possible to help me out with the rent?""}",interaction,Would it be at all possible to help me out with the rent?,W,Male,39,high,interaction,EM,interaction,5.622641509,1.913780141,4.830188679,1.553356775,4.79245283,1.633289396,5.20754717,1.245893108
188,2,high_entitlement,9,14145,,survey-multi-choice,9,249503,0.0-9.0,56171,group2,"{""Q0"":""Can you help me out with the rent?""}",interaction,Can you help me out with the rent?,M,Female,48,high,interaction,M,interaction,5.622641509,1.913780141,4.830188679,1.553356775,4.79245283,1.633289396,5.20754717,1.245893108
189,2,high_entitlement,3,10983,,survey-multi-choice,3,60345,0.0-3.0,25273,group2,"{""Q0"":""Would it be at all possible to help me out with the rent?""}",interaction,Would it be at all possible to help me out with the rent?,W,Male,48,high,interaction,EM,interaction,5.622641509,1.913780141,4.830188679,1.553356775,4.79245283,1.633289396,5.20754717,1.245893108
190,2,high_entitlement,7,4146,,survey-multi-choice,7,301736,0.0-7.0,28542,group2,"{""Q0"":""I need you to cover my rent this month.""}",interaction,I need you to cover my rent this month.,D,Male,25,high,interaction,D,interaction,5.622641509,1.913780141,4.830188679,1.553356775,4.79245283,1.633289396,5.20754717,1.245893108
191,2,high_entitlement,2,64809,,survey-multi-choice,2,175304,0.0-2.0,16670,group2,"{""Q0"":""Can you help me out with the rent?""}",interaction,Can you help me out with the rent?,M,Male,30,high,interaction,M,interaction,5.622641509,1.913780141,4.830188679,1.553356775,4.79245283,1.633289396,5.20754717,1.245893108
192,2,high_entitlement,4,29829,,survey-multi-choice,4,172932,0.0-4.0,8324,group2,"{""Q0"":""I need you to cover my rent this month.""}",interaction,I need you to cover my rent this month.,D,Female,30,high,interaction,D,interaction,5.622641509,1.913780141,4.830188679,1.553356775,4.79245283,1.633289396,5.20754717,1.245893108
193,2,high_entitlement,6,12018,,survey-multi-choice,6,94631,0.0-6.0,98986,group2,"{""Q0"":""Can you help me out with the rent?""}",interaction,Can you help me out with the rent?,M,Female,34,high,interaction,M,interaction,5.622641509,1.913780141,4.830188679,1.553356775,4.79245283,1.633289396,5.20754717,1.245893108
194,2,high_entitlement,7,14450,,survey-multi-choice,7,140927,0.0-7.0,70928,group2,"{""Q0"":""Can you help me out with the rent?""}",interaction,Can you help me out with the rent?,M,Male,30,high,interaction,M,interaction,5.622641509,1.913780141,4.830188679,1.553356775,4.79245283,1.633289396,5.20754717,1.245893108
195,2,high_entitlement,10,40204,,survey-multi-choice,10,299827,0.0-10.0,87512,group2,"{""Q0"":""Can you help me out with the rent?""}",interaction,Can you help me out with the rent?,M,Male,38,high,interaction,M,interaction,5.622641509,1.913780141,4.830188679,1.553356775,4.79245283,1.633289396,5.20754717,1.245893108
196,2,high_entitlement,8,7689,,survey-multi-choice,8,338216,0.0-8.0,1593,group2,"{""Q0"":""I need you to cover my rent this month.""}",interaction,I need you to cover my rent this month.,D,Male,25,high,interaction,D,interaction,5.622641509,1.913780141,4.830188679,1.553356775,4.79245283,1.633289396,5.20754717,1.245893108
197,2,high_entitlement,4,11954,,survey-multi-choice,4,85172,0.0-4.0,74166,group2,"{""Q0"":""Can you help me out with the rent?""}",interaction,Can you help me out with the rent?,M,Male,25,high,interaction,M,interaction,5.622641509,1.913780141,4.830188679,1.553356775,4.79245283,1.633289396,5.20754717,1.245893108
198,2,high_entitlement,11,1476,,survey-multi-choice,11,88273,0.0-11.0,73328,group2,"{""Q0"":""Would it be at all possible to help me out with the rent?""}",interaction,Would it be at all possible to help me out with the rent?,W,Male,25,high,interaction,EM,interaction,5.622641509,1.913780141,4.830188679,1.553356775,4.79245283,1.633289396,5.20754717,1.245893108
199,2,high_entitlement,4,4581,,survey-multi-choice,4,131649,0.0-4.0,74734,group2,"{""Q0"":""Can you help me out with the rent?""}",interaction,Can you help me out with the rent?,M,Female,31,high,interaction,M,interaction,5.622641509,1.913780141,4.830188679,1.553356775,4.79245283,1.633289396,5.20754717,1.245893108
200,2,high_entitlement,9,7906,,survey-multi-choice,9,93898,0.0-9.0,74278,group2,"{""Q0"":""I need you to cover my rent this month.""}",interaction,I need you to cover my rent this month.,D,Male,25,high,interaction,D,interaction,5.622641509,1.913780141,4.830188679,1.553356775,4.79245283,1.633289396,5.20754717,1.245893108
201,2,high_entitlement,4,11551,,survey-multi-choice,4,69908,0.0-4.0,75614,group2,"{""Q0"":""I need you to cover my rent this month.""}",interaction,I need you to cover my rent this month.,D,Male,47,high,interaction,D,interaction,5.622641509,1.913780141,4.830188679,1.553356775,4.79245283,1.633289396,5.20754717,1.245893108
202,2,high_entitlement,10,7732,,survey-multi-choice,10,215734,0.0-10.0,90609,group2,"{""Q0"":""Would it be at all possible to help me out with the rent?""}",interaction,Would it be at all possible to help me out with the rent?,W,Female,21,high,interaction,EM,interaction,5.622641509,1.913780141,4.830188679,1.553356775,4.79245283,1.633289396,5.20754717,1.245893108
203,2,high_entitlement,10,8402,,survey-multi-choice,10,119226,0.0-10.0,22282,group2,"{""Q0"":""I need you to cover my rent this month.""}",interaction,I need you to cover my rent this month.,D,Male,43,high,interaction,D,interaction,5.622641509,1.913780141,4.830188679,1.553356775,4.79245283,1.633289396,5.20754717,1.245893108
204,2,high_entitlement,2,27430,,survey-multi-choice,2,82942,0.0-2.0,19424,group2,"{""Q0"":""Would it be at all possible to help me out with the rent?""}",interaction,Would it be at all possible to help me out with the rent?,W,Female,52,high,interaction,EM,interaction,5.622641509,1.913780141,4.830188679,1.553356775,4.79245283,1.633289396,5.20754717,1.245893108
205,2,high_entitlement,2,68579,,survey-multi-choice,2,111408,0.0-2.0,94407,group2,"{""Q0"":""Would it be at all possible to help me out with the rent?""}",interaction,Would it be at all possible to help me out with the rent?,W,Male,27,high,interaction,EM,interaction,5.622641509,1.913780141,4.830188679,1.553356775,4.79245283,1.633289396,5.20754717,1.245893108
206,2,high_entitlement,5,97733,,survey-multi-choice,5,214027,0.0-5.0,81470,group2,"{""Q0"":""Would it be at all possible to help me out with the rent?""}",interaction,Would it be at all possible to help me out with the rent?,W,Male,36,high,interaction,EM,interaction,5.622641509,1.913780141,4.830188679,1.553356775,4.79245283,1.633289396,5.20754717,1.245893108
207,2,high_entitlement,7,27271,,survey-multi-choice,7,178326,0.0-7.0,86881,group2,"{""Q0"":""Would it be at all possible to help me out with the rent?""}",interaction,Would it be at all possible to help me out with the rent?,W,Female,20,high,interaction,EM,interaction,5.622641509,1.913780141,4.830188679,1.553356775,4.79245283,1.633289396,5.20754717,1.245893108
208,2,high_entitlement,8,33210,,survey-multi-choice,8,189403,0.0-8.0,9171,group2,"{""Q0"":""Would it be at all possible to help me out with the rent?""}",interaction,Would it be at all possible to help me out with the rent?,W,Male,43,high,interaction,EM,interaction,5.622641509,1.913780141,4.830188679,1.553356775,4.79245283,1.633289396,5.20754717,1.245893108
209,2,low_entitlement,6,22426,,survey-multi-choice,6,185002,0.0-6.0,56292,group1,"{""Q0"":""Can you help me out with the rent?""}",interaction,Can you help me out with the rent?,M,Female,31,low,interaction,M,interaction,3.0625,2.025436648,5.9375,1.060033119,5.604166667,1.425297033,4.708333333,1.270924163
210,2,low_entitlement,6,27661,,survey-multi-choice,6,179665,0.0-6.0,95061,group1,"{""Q0"":""I'm short on cash this month, and rent is coming up.""}",interaction,"I'm short on cash this month, and rent is coming up.",IS,Female,33,low,interaction,IS,interaction,3.0625,2.025436648,5.9375,1.060033119,5.604166667,1.425297033,4.708333333,1.270924163
211,2,low_entitlement,8,2360,,survey-multi-choice,8,43767,0.0-8.0,11674,group1,"{""Q0"":""I'm short on cash this month, and rent is coming up.""}",interaction,"I'm short on cash this month, and rent is coming up.",IS,Male,41,low,interaction,IS,interaction,3.0625,2.025436648,5.9375,1.060033119,5.604166667,1.425297033,4.708333333,1.270924163
212,2,low_entitlement,11,299864,,survey-multi-choice,11,1443652,0.0-11.0,7044,group1,"{""Q0"":""Can you help me out with the rent?""}",interaction,Can you help me out with the rent?,M,Female,23,low,interaction,M,interaction,3.0625,2.025436648,5.9375,1.060033119,5.604166667,1.425297033,4.708333333,1.270924163
213,2,low_entitlement,6,12101,,survey-multi-choice,6,124976,0.0-6.0,2471,group1,"{""Q0"":""Would it be at all possible to help me out with the rent?""}",interaction,Would it be at all possible to help me out with the rent?,W,Female,59,low,interaction,EM,interaction,3.0625,2.025436648,5.9375,1.060033119,5.604166667,1.425297033,4.708333333,1.270924163
214,2,low_entitlement,6,7328,,survey-multi-choice,6,72394,0.0-6.0,24995,group1,"{""Q0"":""Would it be at all possible to help me out with the rent?""}",interaction,Would it be at all possible to help me out with the rent?,W,Male,30,low,interaction,EM,interaction,3.0625,2.025436648,5.9375,1.060033119,5.604166667,1.425297033,4.708333333,1.270924163
215,2,low_entitlement,10,27373,,survey-multi-choice,10,348356,0.0-10.0,58332,group1,"{""Q0"":""Can you help me out with the rent?""}",interaction,Can you help me out with the rent?,M,Male,65,low,interaction,M,interaction,3.0625,2.025436648,5.9375,1.060033119,5.604166667,1.425297033,4.708333333,1.270924163
216,2,low_entitlement,9,8249,,survey-multi-choice,9,127234,0.0-9.0,46162,group1,"{""Q0"":""Would it be at all possible to help me out with the rent?""}",interaction,Would it be at all possible to help me out with the rent?,W,Male,35,low,interaction,EM,interaction,3.0625,2.025436648,5.9375,1.060033119,5.604166667,1.425297033,4.708333333,1.270924163
217,2,low_entitlement,10,11187,,survey-multi-choice,10,149115,0.0-10.0,24041,group1,"{""Q0"":""Can you help me out with the rent?""}",interaction,Can you help me out with the rent?,M,Male,39,low,interaction,M,interaction,3.0625,2.025436648,5.9375,1.060033119,5.604166667,1.425297033,4.708333333,1.270924163
218,2,low_entitlement,5,117486,,survey-multi-choice,5,415635,0.0-5.0,66682,group1,"{""Q0"":""Would it be at all possible to help me out with the rent?""}",interaction,Would it be at all possible to help me out with the rent?,W,Female,29,low,interaction,EM,interaction,3.0625,2.025436648,5.9375,1.060033119,5.604166667,1.425297033,4.708333333,1.270924163
219,2,low_entitlement,6,1844,,survey-multi-choice,6,83365,0.0-6.0,71391,group1,"{""Q0"":""Would it be at all possible to help me out with the rent?""}",interaction,Would it be at all possible to help me out with the rent?,W,Male,29,low,interaction,EM,interaction,3.0625,2.025436648,5.9375,1.060033119,5.604166667,1.425297033,4.708333333,1.270924163
220,2,low_entitlement,6,3510,,survey-multi-choice,6,239667,0.0-6.0,33903,group1,"{""Q0"":""Can you help me out with the rent?""}",interaction,Can you help me out with the rent?,M,Female,32,low,interaction,M,interaction,3.0625,2.025436648,5.9375,1.060033119,5.604166667,1.425297033,4.708333333,1.270924163
221,2,low_entitlement,6,4086,,survey-multi-choice,6,54007,0.0-6.0,89974,group1,"{""Q0"":""I need you to cover my rent this month.""}",interaction,I need you to cover my rent this month.,D,Female,25,low,interaction,D,interaction,3.0625,2.025436648,5.9375,1.060033119,5.604166667,1.425297033,4.708333333,1.270924163
222,2,low_entitlement,10,6322,,survey-multi-choice,10,554223,0.0-10.0,90211,group1,"{""Q0"":""Would it be at all possible to help me out with the rent?""}",interaction,Would it be at all possible to help me out with the rent?,W,Female,27,low,interaction,EM,interaction,3.0625,2.025436648,5.9375,1.060033119,5.604166667,1.425297033,4.708333333,1.270924163
223,2,low_entitlement,3,3746,,survey-multi-choice,3,30745,0.0-3.0,34496,group1,"{""Q0"":""Would it be at all possible to help me out with the rent?""}",interaction,Would it be at all possible to help me out with the rent?,W,Male,27,low,interaction,EM,interaction,3.0625,2.025436648,5.9375,1.060033119,5.604166667,1.425297033,4.708333333,1.270924163
224,2,low_entitlement,6,28026,,survey-multi-choice,6,251751,0.0-6.0,80148,group1,"{""Q0"":""I'm short on cash this month, and rent is coming up.""}",interaction,"I'm short on cash this month, and rent is coming up.",IS,Female,33,low,interaction,IS,interaction,3.0625,2.025436648,5.9375,1.060033119,5.604166667,1.425297033,4.708333333,1.270924163
225,2,low_entitlement,10,18983,,survey-multi-choice,10,337853,0.0-10.0,16711,group1,"{""Q0"":""I'm short on cash this month, and rent is coming up.""}",interaction,"I'm short on cash this month, and rent is coming up.",IS,Female,42,low,interaction,IS,interaction,3.0625,2.025436648,5.9375,1.060033119,5.604166667,1.425297033,4.708333333,1.270924163
226,2,low_entitlement,10,17390,,survey-multi-choice,10,136970,0.0-10.0,45852,group1,"{""Q0"":""I need you to cover my rent this month.""}",interaction,I need you to cover my rent this month.,D,Male,27,low,interaction,D,interaction,3.0625,2.025436648,5.9375,1.060033119,5.604166667,1.425297033,4.708333333,1.270924163
227,2,low_entitlement,4,13025,,survey-multi-choice,4,104066,0.0-4.0,57860,group1,"{""Q0"":""Would it be at all possible to help me out with the rent?""}",interaction,Would it be at all possible to help me out with the rent?,W,Male,35,low,interaction,EM,interaction,3.0625,2.025436648,5.9375,1.060033119,5.604166667,1.425297033,4.708333333,1.270924163
228,2,low_entitlement,6,35089,,survey-multi-choice,6,304733,0.0-6.0,55304,group1,"{""Q0"":""Can you help me out with the rent?""}",interaction,Can you help me out with the rent?,M,Female,43,low,interaction,M,interaction,3.0625,2.025436648,5.9375,1.060033119,5.604166667,1.425297033,4.708333333,1.270924163
229,2,low_entitlement,11,12173,,survey-multi-choice,11,425460,0.0-11.0,24718,group1,"{""Q0"":""Would it be at all possible to help me out with the rent?""}",interaction,Would it be at all possible to help me out with the rent?,W,Female,40,low,interaction,EM,interaction,3.0625,2.025436648,5.9375,1.060033119,5.604166667,1.425297033,4.708333333,1.270924163
230,2,low_entitlement,9,5076,,survey-multi-choice,9,96475,0.0-9.0,67700,group1,"{""Q0"":""I'm short on cash this month, and rent is coming up.""}",interaction,"I'm short on cash this month, and rent is coming up.",IS,Male,29,low,interaction,IS,interaction,3.0625,2.025436648,5.9375,1.060033119,5.604166667,1.425297033,4.708333333,1.270924163
231,2,low_entitlement,7,14337,,survey-multi-choice,7,191652,0.0-7.0,32379,group1,"{""Q0"":""Would it be at all possible to help me out with the rent?""}",interaction,Would it be at all possible to help me out with the rent?,W,Male,23,low,interaction,EM,interaction,3.0625,2.025436648,5.9375,1.060033119,5.604166667,1.425297033,4.708333333,1.270924163
232,2,low_entitlement,4,17666,,survey-multi-choice,4,149324,0.0-4.0,42017,group1,"{""Q0"":""Would it be at all possible to help me out with the rent?""}",interaction,Would it be at all possible to help me out with the rent?,W,Female,37,low,interaction,EM,interaction,3.0625,2.025436648,5.9375,1.060033119,5.604166667,1.425297033,4.708333333,1.270924163
233,2,low_entitlement,11,5655,,survey-multi-choice,11,125619,0.0-11.0,81283,group1,"{""Q0"":""Can you help me out with the rent?""}",interaction,Can you help me out with the rent?,M,Female,30,low,interaction,M,interaction,3.0625,2.025436648,5.9375,1.060033119,5.604166667,1.425297033,4.708333333,1.270924163
234,2,low_entitlement,2,30706,,survey-multi-choice,2,81679,0.0-2.0,61519,group1,"{""Q0"":""Would it be at all possible to help me out with the rent?""}",interaction,Would it be at all possible to help me out with the rent?,W,Male,37,low,interaction,EM,interaction,3.0625,2.025436648,5.9375,1.060033119,5.604166667,1.425297033,4.708333333,1.270924163
235,2,low_entitlement,9,2252,,survey-multi-choice,9,49238,0.0-9.0,64887,group1,"{""Q0"":""Can you help me out with the rent?""}",interaction,Can you help me out with the rent?,M,Female,30,low,interaction,M,interaction,3.0625,2.025436648,5.9375,1.060033119,5.604166667,1.425297033,4.708333333,1.270924163
236,2,low_entitlement,11,2203,,survey-multi-choice,11,241883,0.0-11.0,8216,group1,"{""Q0"":""Would it be at all possible to help me out with the rent?""}",interaction,Would it be at all possible to help me out with the rent?,W,Male,29,low,interaction,EM,interaction,3.0625,2.025436648,5.9375,1.060033119,5.604166667,1.425297033,4.708333333,1.270924163
237,2,low_entitlement,2,20569,,survey-multi-choice,2,408027,0.0-2.0,94652,group1,"{""Q0"":""Would it be at all possible to help me out with the rent?""}",interaction,Would it be at all possible to help me out with the rent?,W,Female,58,low,interaction,EM,interaction,3.0625,2.025436648,5.9375,1.060033119,5.604166667,1.425297033,4.708333333,1.270924163
238,2,low_entitlement,8,20378,,survey-multi-choice,8,212779,0.0-8.0,87155,group1,"{""Q0"":""Would it be at all possible to help me out with the rent?""}",interaction,Would it be at all possible to help me out with the rent?,W,Male,26,low,interaction,EM,interaction,3.0625,2.025436648,5.9375,1.060033119,5.604166667,1.425297033,4.708333333,1.270924163
239,2,low_entitlement,8,11865,,survey-multi-choice,8,209138,0.0-8.0,42306,group1,"{""Q0"":""Would it be at all possible to help me out with the rent?""}",interaction,Would it be at all possible to help me out with the rent?,W,Female,49,low,interaction,EM,interaction,3.0625,2.025436648,5.9375,1.060033119,5.604166667,1.425297033,4.708333333,1.270924163
240,2,low_entitlement,11,4813,,survey-multi-choice,11,89020,0.0-11.0,87326,group1,"{""Q0"":""Would it be at all possible to help me out with the rent?""}",interaction,Would it be at all possible to help me out with the rent?,W,Female,22,low,interaction,EM,interaction,3.0625,2.025436648,5.9375,1.060033119,5.604166667,1.425297033,4.708333333,1.270924163
241,2,low_entitlement,11,38740,,survey-multi-choice,11,133878,0.0-11.0,20794,group1,"{""Q0"":""Would it be at all possible to help me out with the rent?""}",interaction,Would it be at all possible to help me out with the rent?,W,Female,33,low,interaction,EM,interaction,3.0625,2.025436648,5.9375,1.060033119,5.604166667,1.425297033,4.708333333,1.270924163
242,2,low_entitlement,10,1845,,survey-multi-choice,10,41325,0.0-10.0,97756,group1,"{""Q0"":""Would it be at all possible to help me out with the rent?""}",interaction,Would it be at all possible to help me out with the rent?,W,Male,31,low,interaction,EM,interaction,3.0625,2.025436648,5.9375,1.060033119,5.604166667,1.425297033,4.708333333,1.270924163
243,3,high_entitlement,10,20283,,survey-multi-choice,10,335650,0.0-10.0,80148,group1,"{""Q0"":""Can you get me the copies of the expense and quarterly reports?""}",relationship,Can you get me the copies of the expense and quarterly reports?,M,Female,33,high,relationship,M,relationship,5.270833333,1.620868999,3.979166667,1.850699504,3.787234043,2.254812922,4.083333333,1.350072233
244,3,high_entitlement,6,16104,,survey-multi-choice,6,134154,0.0-6.0,57860,group1,"{""Q0"":""I was wondering if I could get copies of the expense and quarterly reports?""}",relationship,I was wondering if I could get copies of the expense and quarterly reports?,W,Male,35,high,relationship,EM,relationship,5.270833333,1.620868999,3.979166667,1.850699504,3.787234043,2.254812922,4.083333333,1.350072233
245,3,high_entitlement,10,22829,,survey-multi-choice,10,231509,0.0-10.0,61519,group1,"{""Q0"":""I was wondering if I could get copies of the expense and quarterly reports?""}",relationship,I was wondering if I could get copies of the expense and quarterly reports?,W,Male,37,high,relationship,EM,relationship,5.270833333,1.620868999,3.979166667,1.850699504,3.787234043,2.254812922,4.083333333,1.350072233
246,3,high_entitlement,9,12267,,survey-multi-choice,9,168505,0.0-9.0,2471,group1,"{""Q0"":""Can you get me the copies of the expense and quarterly reports?""}",relationship,Can you get me the copies of the expense and quarterly reports?,M,Female,59,high,relationship,M,relationship,5.270833333,1.620868999,3.979166667,1.850699504,3.787234043,2.254812922,4.083333333,1.350072233
247,3,high_entitlement,4,1261,,survey-multi-choice,4,26869,0.0-4.0,97756,group1,"{""Q0"":""I need you to compile these reports.""}",relationship,I need you to compile these reports.,D,Male,31,high,relationship,D,relationship,5.270833333,1.620868999,3.979166667,1.850699504,3.787234043,2.254812922,4.083333333,1.350072233
248,3,high_entitlement,5,18160,,survey-multi-choice,5,168504,0.0-5.0,42017,group1,"{""Q0"":""Can you get me the copies of the expense and quarterly reports?""}",relationship,Can you get me the copies of the expense and quarterly reports?,M,Female,37,high,relationship,M,relationship,5.270833333,1.620868999,3.979166667,1.850699504,3.787234043,2.254812922,4.083333333,1.350072233
249,3,high_entitlement,10,2557,,survey-multi-choice,10,52797,0.0-10.0,64887,group1,"{""Q0"":""I'm not sure I have time to compile these reports.""}",relationship,I'm not sure I have time to compile these reports.,IS,Female,30,high,relationship,IS,relationship,5.270833333,1.620868999,3.979166667,1.850699504,3.787234043,2.254812922,4.083333333,1.350072233
250,3,high_entitlement,10,1259,,survey-multi-choice,10,49255,0.0-10.0,11674,group1,"{""Q0"":""I need you to compile these reports.""}",relationship,I need you to compile these reports.,D,Male,41,high,relationship,D,relationship,5.270833333,1.620868999,3.979166667,1.850699504,3.787234043,2.254812922,4.083333333,1.350072233
251,3,high_entitlement,7,3196,,survey-multi-choice,7,87565,0.0-7.0,71391,group1,"{""Q0"":""I was wondering if I could get copies of the expense and quarterly reports?""}",relationship,I was wondering if I could get copies of the expense and quarterly reports?,W,Male,29,high,relationship,EM,relationship,5.270833333,1.620868999,3.979166667,1.850699504,3.787234043,2.254812922,4.083333333,1.350072233
252,3,high_entitlement,9,27470,,survey-multi-choice,9,319960,0.0-9.0,58332,group1,"{""Q0"":""Can you get me the copies of the expense and quarterly reports?""}",relationship,Can you get me the copies of the expense and quarterly reports?,M,Male,65,high,relationship,M,relationship,5.270833333,1.620868999,3.979166667,1.850699504,3.787234043,2.254812922,4.083333333,1.350072233
253,3,high_entitlement,8,28548,,survey-multi-choice,8,221208,0.0-8.0,32379,group1,"{""Q0"":""I need you to compile these reports.""}",relationship,I need you to compile these reports.,D,Male,23,high,relationship,D,relationship,5.270833333,1.620868999,3.979166667,1.850699504,3.787234043,2.254812922,4.083333333,1.350072233
254,3,high_entitlement,3,16845,,survey-multi-choice,3,78817,0.0-3.0,45852,group1,"{""Q0"":""I need you to compile these reports.""}",relationship,I need you to compile these reports.,D,Male,27,high,relationship,D,relationship,5.270833333,1.620868999,3.979166667,1.850699504,3.787234043,2.254812922,4.083333333,1.350072233
255,3,high_entitlement,4,8308,,survey-multi-choice,4,55833,0.0-4.0,24995,group1,"{""Q0"":""Can you get me the copies of the expense and quarterly reports?""}",relationship,Can you get me the copies of the expense and quarterly reports?,M,Male,30,high,relationship,M,relationship,5.270833333,1.620868999,3.979166667,1.850699504,3.787234043,2.254812922,4.083333333,1.350072233
256,3,high_entitlement,5,8609,,survey-multi-choice,5,53340,0.0-5.0,87326,group1,"{""Q0"":""I was wondering if I could get copies of the expense and quarterly reports?""}",relationship,I was wondering if I could get copies of the expense and quarterly reports?,W,Female,22,high,relationship,EM,relationship,5.270833333,1.620868999,3.979166667,1.850699504,3.787234043,2.254812922,4.083333333,1.350072233
257,3,high_entitlement,2,11863,,survey-multi-choice,2,25649,0.0-2.0,89974,group1,"{""Q0"":""I need you to compile these reports.""}",relationship,I need you to compile these reports.,D,Female,25,high,relationship,D,relationship,5.270833333,1.620868999,3.979166667,1.850699504,3.787234043,2.254812922,4.083333333,1.350072233
258,3,high_entitlement,6,16348,,survey-multi-choice,6,432987,0.0-6.0,66682,group1,"{""Q0"":""Can you get me the copies of the expense and quarterly reports?""}",relationship,Can you get me the copies of the expense and quarterly reports?,M,Female,29,high,relationship,M,relationship,5.270833333,1.620868999,3.979166667,1.850699504,3.787234043,2.254812922,4.083333333,1.350072233
259,3,high_entitlement,11,9191,,survey-multi-choice,11,144902,0.0-11.0,46162,group1,"{""Q0"":""Can you get me the copies of the expense and quarterly reports?""}",relationship,Can you get me the copies of the expense and quarterly reports?,M,Male,35,high,relationship,M,relationship,5.270833333,1.620868999,3.979166667,1.850699504,3.787234043,2.254812922,4.083333333,1.350072233
260,3,high_entitlement,2,36232,,survey-multi-choice,2,77232,0.0-2.0,42306,group1,"{""Q0"":""Can you get me the copies of the expense and quarterly reports?""}",relationship,Can you get me the copies of the expense and quarterly reports?,M,Female,49,high,relationship,M,relationship,5.270833333,1.620868999,3.979166667,1.850699504,3.787234043,2.254812922,4.083333333,1.350072233
261,3,high_entitlement,4,24428,,survey-multi-choice,4,139240,0.0-4.0,56292,group1,"{""Q0"":""Can you get me the copies of the expense and quarterly reports?""}",relationship,Can you get me the copies of the expense and quarterly reports?,M,Female,31,high,relationship,M,relationship,5.270833333,1.620868999,3.979166667,1.850699504,3.787234043,2.254812922,4.083333333,1.350072233
262,3,high_entitlement,6,12557,,survey-multi-choice,6,447425,0.0-6.0,94652,group1,"{""Q0"":""Can you get me the copies of the expense and quarterly reports?""}",relationship,Can you get me the copies of the expense and quarterly reports?,M,Female,58,high,relationship,M,relationship,5.270833333,1.620868999,3.979166667,1.850699504,3.787234043,2.254812922,4.083333333,1.350072233
263,3,high_entitlement,5,6012,,survey-multi-choice,5,71301,0.0-5.0,81283,group1,"{""Q0"":""Can you get me the copies of the expense and quarterly reports?""}",relationship,Can you get me the copies of the expense and quarterly reports?,M,Female,30,high,relationship,M,relationship,5.270833333,1.620868999,3.979166667,1.850699504,3.787234043,2.254812922,4.083333333,1.350072233
264,3,high_entitlement,5,34871,,survey-multi-choice,5,268637,0.0-5.0,55304,group1,"{""Q0"":""Can you get me the copies of the expense and quarterly reports?""}",relationship,Can you get me the copies of the expense and quarterly reports?,M,Female,43,high,relationship,M,relationship,5.270833333,1.620868999,3.979166667,1.850699504,3.787234043,2.254812922,4.083333333,1.350072233
265,3,high_entitlement,5,19309,,survey-multi-choice,5,215626,0.0-5.0,16711,group1,"{""Q0"":""I was wondering if I could get copies of the expense and quarterly reports?""}",relationship,I was wondering if I could get copies of the expense and quarterly reports?,W,Female,42,high,relationship,EM,relationship,5.270833333,1.620868999,3.979166667,1.850699504,3.787234043,2.254812922,4.083333333,1.350072233
266,3,high_entitlement,3,13931,,survey-multi-choice,3,307653,0.0-3.0,24718,group1,"{""Q0"":""I need you to compile these reports.""}",relationship,I need you to compile these reports.,D,Female,40,high,relationship,D,relationship,5.270833333,1.620868999,3.979166667,1.850699504,3.787234043,2.254812922,4.083333333,1.350072233
267,3,high_entitlement,4,32270,,survey-multi-choice,4,561764,0.0-4.0,7044,group1,"{""Q0"":""Can you get me the copies of the expense and quarterly reports?""}",relationship,Can you get me the copies of the expense and quarterly reports?,M,Female,23,high,relationship,M,relationship,5.270833333,1.620868999,3.979166667,1.850699504,3.787234043,2.254812922,4.083333333,1.350072233
268,3,high_entitlement,8,2709,,survey-multi-choice,8,247251,0.0-8.0,33903,group1,"{""Q0"":""Can you get me the copies of the expense and quarterly reports?""}",relationship,Can you get me the copies of the expense and quarterly reports?,M,Female,32,high,relationship,M,relationship,5.270833333,1.620868999,3.979166667,1.850699504,3.787234043,2.254812922,4.083333333,1.350072233
269,3,high_entitlement,2,6109,,survey-multi-choice,2,27168,0.0-2.0,20794,group1,"{""Q0"":""Can you get me the copies of the expense and quarterly reports?""}",relationship,Can you get me the copies of the expense and quarterly reports?,M,Female,33,high,relationship,M,relationship,5.270833333,1.620868999,3.979166667,1.850699504,3.787234043,2.254812922,4.083333333,1.350072233
270,3,high_entitlement,10,6278,,survey-multi-choice,10,71986,0.0-10.0,34496,group1,"{""Q0"":""Can you get me the copies of the expense and quarterly reports?""}",relationship,Can you get me the copies of the expense and quarterly reports?,M,Male,27,high,relationship,M,relationship,5.270833333,1.620868999,3.979166667,1.850699504,3.787234043,2.254812922,4.083333333,1.350072233
271,3,high_entitlement,6,12459,,survey-multi-choice,6,110604,0.0-6.0,24041,group1,"{""Q0"":""I was wondering if I could get copies of the expense and quarterly reports?""}",relationship,I was wondering if I could get copies of the expense and quarterly reports?,W,Male,39,high,relationship,EM,relationship,5.270833333,1.620868999,3.979166667,1.850699504,3.787234043,2.254812922,4.083333333,1.350072233
272,3,high_entitlement,3,27869,,survey-multi-choice,3,349526,0.0-3.0,90211,group1,"{""Q0"":""I'm not sure I have time to compile these reports.""}",relationship,I'm not sure I have time to compile these reports.,IS,Female,27,high,relationship,IS,relationship,5.270833333,1.620868999,3.979166667,1.850699504,3.787234043,2.254812922,4.083333333,1.350072233
273,3,high_entitlement,9,2354,,survey-multi-choice,9,234267,0.0-9.0,8216,group1,"{""Q0"":""Can you get me the copies of the expense and quarterly reports?""}",relationship,Can you get me the copies of the expense and quarterly reports?,M,Male,29,high,relationship,M,relationship,5.270833333,1.620868999,3.979166667,1.850699504,3.787234043,2.254812922,4.083333333,1.350072233
274,3,high_entitlement,3,19603,,survey-multi-choice,3,132742,0.0-3.0,87155,group1,"{""Q0"":""Can you get me the copies of the expense and quarterly reports?""}",relationship,Can you get me the copies of the expense and quarterly reports?,M,Male,26,high,relationship,M,relationship,5.270833333,1.620868999,3.979166667,1.850699504,3.787234043,2.254812922,4.083333333,1.350072233
275,3,high_entitlement,11,2089,,survey-multi-choice,11,105346,0.0-11.0,67700,group1,"{""Q0"":""I'm not sure I have time to compile these reports.""}",relationship,I'm not sure I have time to compile these reports.,IS,Male,29,high,relationship,IS,relationship,5.270833333,1.620868999,3.979166667,1.850699504,3.787234043,2.254812922,4.083333333,1.350072233
276,3,high_entitlement,7,118554,,survey-multi-choice,7,299267,0.0-7.0,95061,group1,"{""Q0"":""Can you get me the copies of the expense and quarterly reports?""}",relationship,Can you get me the copies of the expense and quarterly reports?,M,Female,33,high,relationship,M,relationship,5.270833333,1.620868999,3.979166667,1.850699504,3.787234043,2.254812922,4.083333333,1.350072233
277,3,low_entitlement,4,11257,,survey-multi-choice,4,53608,0.0-4.0,22282,group2,"{""Q0"":""Can you get me the copies of the expense and quarterly reports?""}",relationship,Can you get me the copies of the expense and quarterly reports?,M,Male,43,low,relationship,M,relationship,4.826923077,1.677079088,4.037735849,1.663664446,6.094339623,1.348277404,3.113207547,1.660171184
278,3,low_entitlement,2,13118,,survey-multi-choice,2,62119,0.0-2.0,74166,group2,"{""Q0"":""I'm not sure I have time to compile these reports.""}",relationship,I'm not sure I have time to compile these reports.,IS,Male,25,low,relationship,IS,relationship,4.826923077,1.677079088,4.037735849,1.663664446,6.094339623,1.348277404,3.113207547,1.660171184
279,3,low_entitlement,11,19694,,survey-multi-choice,11,297343,0.0-11.0,56171,group2,"{""Q0"":""I was wondering if I could get copies of the expense and quarterly reports?""}",relationship,I was wondering if I could get copies of the expense and quarterly reports?,W,Female,48,low,relationship,EM,relationship,4.826923077,1.677079088,4.037735849,1.663664446,6.094339623,1.348277404,3.113207547,1.660171184
280,3,low_entitlement,5,4547,,survey-multi-choice,5,90508,0.0-5.0,40239,group2,"{""Q0"":""I was wondering if I could get copies of the expense and quarterly reports?""}",relationship,I was wondering if I could get copies of the expense and quarterly reports?,W,Female,56,low,relationship,EM,relationship,4.826923077,1.677079088,4.037735849,1.663664446,6.094339623,1.348277404,3.113207547,1.660171184
281,3,low_entitlement,2,20390,,survey-multi-choice,2,43504,0.0-2.0,42146,group2,"{""Q0"":""Can you get me the copies of the expense and quarterly reports?""}",relationship,Can you get me the copies of the expense and quarterly reports?,M,Female,34,low,relationship,M,relationship,4.826923077,1.677079088,4.037735849,1.663664446,6.094339623,1.348277404,3.113207547,1.660171184
282,3,low_entitlement,4,16784,,survey-multi-choice,4,69255,0.0-4.0,65743,group2,"{""Q0"":""I need you to compile these reports.""}",relationship,I need you to compile these reports.,D,Male,26,low,relationship,D,relationship,4.826923077,1.677079088,4.037735849,1.663664446,6.094339623,1.348277404,3.113207547,1.660171184
283,3,low_entitlement,7,31765,,survey-multi-choice,7,155183,0.0-7.0,9171,group2,"{""Q0"":""Can you get me the copies of the expense and quarterly reports?""}",relationship,Can you get me the copies of the expense and quarterly reports?,M,Male,43,low,relationship,M,relationship,4.826923077,1.677079088,4.037735849,1.663664446,6.094339623,1.348277404,3.113207547,1.660171184
284,3,low_entitlement,5,16589,,survey-multi-choice,5,89067,0.0-5.0,25273,group2,"{""Q0"":""I was wondering if I could get copies of the expense and quarterly reports?""}",relationship,I was wondering if I could get copies of the expense and quarterly reports?,W,Male,48,low,relationship,EM,relationship,4.826923077,1.677079088,4.037735849,1.663664446,6.094339623,1.348277404,3.113207547,1.660171184
285,3,low_entitlement,3,34432,,survey-multi-choice,3,186035,0.0-3.0,3324,group2,"{""Q0"":""I was wondering if I could get copies of the expense and quarterly reports?""}",relationship,I was wondering if I could get copies of the expense and quarterly reports?,W,Male,41,low,relationship,EM,relationship,4.826923077,1.677079088,4.037735849,1.663664446,6.094339623,1.348277404,3.113207547,1.660171184
286,3,low_entitlement,9,4435,,survey-multi-choice,9,258614,0.0-9.0,87512,group2,"{""Q0"":""I was wondering if I could get copies of the expense and quarterly reports?""}",relationship,I was wondering if I could get copies of the expense and quarterly reports?,W,Male,38,low,relationship,EM,relationship,4.826923077,1.677079088,4.037735849,1.663664446,6.094339623,1.348277404,3.113207547,1.660171184
287,3,low_entitlement,6,14999,,survey-multi-choice,6,137860,0.0-6.0,19424,group2,"{""Q0"":""I was wondering if I could get copies of the expense and quarterly reports?""}",relationship,I was wondering if I could get copies of the expense and quarterly reports?,W,Female,52,low,relationship,EM,relationship,4.826923077,1.677079088,4.037735849,1.663664446,6.094339623,1.348277404,3.113207547,1.660171184
288,3,low_entitlement,8,15542,,survey-multi-choice,8,201567,0.0-8.0,55991,group2,"{""Q0"":""I was wondering if I could get copies of the expense and quarterly reports?""}",relationship,I was wondering if I could get copies of the expense and quarterly reports?,W,Female,27,low,relationship,EM,relationship,4.826923077,1.677079088,4.037735849,1.663664446,6.094339623,1.348277404,3.113207547,1.660171184
289,3,low_entitlement,8,24857,,survey-multi-choice,8,336583,0.0-8.0,36333,group2,"{""Q0"":""Can you get me the copies of the expense and quarterly reports?""}",relationship,Can you get me the copies of the expense and quarterly reports?,M,Female,42,low,relationship,M,relationship,4.826923077,1.677079088,4.037735849,1.663664446,6.094339623,1.348277404,3.113207547,1.660171184
290,3,low_entitlement,6,19804,,survey-multi-choice,6,178706,0.0-6.0,79859,group2,"{""Q0"":""I was wondering if I could get copies of the expense and quarterly reports?""}",relationship,I was wondering if I could get copies of the expense and quarterly reports?,W,Female,27,low,relationship,EM,relationship,4.826923077,1.677079088,4.037735849,1.663664446,6.094339623,1.348277404,3.113207547,1.660171184
291,3,low_entitlement,7,3722,,survey-multi-choice,7,223644,0.0-7.0,45177,group2,"{""Q0"":""I was wondering if I could get copies of the expense and quarterly reports?""}",relationship,I was wondering if I could get copies of the expense and quarterly reports?,W,Male,29,low,relationship,EM,relationship,4.826923077,1.677079088,4.037735849,1.663664446,6.094339623,1.348277404,3.113207547,1.660171184
292,3,low_entitlement,11,12462,,survey-multi-choice,11,248311,0.0-11.0,87775,group2,"{""Q0"":""Can you get me the copies of the expense and quarterly reports?""}",relationship,Can you get me the copies of the expense and quarterly reports?,M,Male,22,low,relationship,M,relationship,4.826923077,1.677079088,4.037735849,1.663664446,6.094339623,1.348277404,3.113207547,1.660171184
293,3,low_entitlement,4,3325,,survey-multi-choice,4,109421,0.0-4.0,1977,group2,"{""Q0"":""I was wondering if I could get copies of the expense and quarterly reports?""}",relationship,I was wondering if I could get copies of the expense and quarterly reports?,W,Male,33,low,relationship,EM,relationship,4.826923077,1.677079088,4.037735849,1.663664446,6.094339623,1.348277404,3.113207547,1.660171184
