stimNum,stimType,rt,trial_index,subject,group,answer,code,Gender,Age,condition,situation,formatting,mean_entitlement,sd_entitlement,mean_imposition,sd_imposition,mean_power,sd_power,mean_distance,sd_distance
1,high_entitlement,2180,8,71391,group1,"Hey, help me move my stuff.",D,Male,29,high,interaction,D,5.25,1.850819255,3.6875,1.652287261,4.333333333,1.310080935,4.708333333,1.090741176
1,high_entitlement,2340,11,34496,group1,Could you help me move this stuff into my apartment?,M,Male,27,high,interaction,M,5.25,1.850819255,3.6875,1.652287261,4.333333333,1.310080935,4.708333333,1.090741176
1,high_entitlement,19815,7,61519,group1,"Hey, help me move my stuff.",D,Male,37,high,interaction,D,5.25,1.850819255,3.6875,1.652287261,4.333333333,1.310080935,4.708333333,1.090741176
1,high_entitlement,27882,3,42017,group1,Could you help me move this stuff into my apartment?,M,Female,37,high,interaction,M,5.25,1.850819255,3.6875,1.652287261,4.333333333,1.310080935,4.708333333,1.090741176
1,high_entitlement,2597,11,33903,group1,Could you help me move this stuff into my apartment?,M,Female,32,high,interaction,M,5.25,1.850819255,3.6875,1.652287261,4.333333333,1.310080935,4.708333333,1.090741176
1,high_entitlement,30336,8,24718,group1,Is there any way you could help move my stuff?,W,Female,40,high,interaction,EM,5.25,1.850819255,3.6875,1.652287261,4.333333333,1.310080935,4.708333333,1.090741176
1,high_entitlement,9913,11,56292,group1,Could you help me move this stuff into my apartment?,M,Female,31,high,interaction,M,5.25,1.850819255,3.6875,1.652287261,4.333333333,1.310080935,4.708333333,1.090741176
1,high_entitlement,36037,7,7044,group1,Could you help me move this stuff into my apartment?,M,Female,23,high,interaction,M,5.25,1.850819255,3.6875,1.652287261,4.333333333,1.310080935,4.708333333,1.090741176
1,high_entitlement,32102,9,32379,group1,Could you help me move this stuff into my apartment?,M,Male,23,high,interaction,M,5.25,1.850819255,3.6875,1.652287261,4.333333333,1.310080935,4.708333333,1.090741176
1,high_entitlement,10370,7,46162,group1,Is there any way you could help move my stuff?,W,Male,35,high,interaction,EM,5.25,1.850819255,3.6875,1.652287261,4.333333333,1.310080935,4.708333333,1.090741176
1,high_entitlement,11972,5,57860,group1,Could you help me move this stuff into my apartment?,M,Male,35,high,interaction,M,5.25,1.850819255,3.6875,1.652287261,4.333333333,1.310080935,4.708333333,1.090741176
1,high_entitlement,6248,5,45852,group1,"Hey, help me move my stuff.",D,Male,27,high,interaction,D,5.25,1.850819255,3.6875,1.652287261,4.333333333,1.310080935,4.708333333,1.090741176
1,high_entitlement,3085,3,67700,group1,Could you help me move this stuff into my apartment?,M,Male,29,high,interaction,M,5.25,1.850819255,3.6875,1.652287261,4.333333333,1.310080935,4.708333333,1.090741176
1,high_entitlement,8071,6,81283,group1,Could you help me move this stuff into my apartment?,M,Female,30,high,interaction,M,5.25,1.850819255,3.6875,1.652287261,4.333333333,1.310080935,4.708333333,1.090741176
1,high_entitlement,30398,9,95061,group1,"Hey, help me move my stuff.",D,Female,33,high,interaction,D,5.25,1.850819255,3.6875,1.652287261,4.333333333,1.310080935,4.708333333,1.090741176
1,high_entitlement,2073,4,11674,group1,"Hey, help me move my stuff.",D,Male,41,high,interaction,D,5.25,1.850819255,3.6875,1.652287261,4.333333333,1.310080935,4.708333333,1.090741176
1,high_entitlement,27227,8,58332,group1,Could you help me move this stuff into my apartment?,M,Male,65,high,interaction,M,5.25,1.850819255,3.6875,1.652287261,4.333333333,1.310080935,4.708333333,1.090741176
1,high_entitlement,3885,3,64887,group1,Is there any way you could help move my stuff?,W,Female,30,high,interaction,EM,5.25,1.850819255,3.6875,1.652287261,4.333333333,1.310080935,4.708333333,1.090741176
1,high_entitlement,11585,7,94652,group1,Could you help me move this stuff into my apartment?,M,Female,58,high,interaction,M,5.25,1.850819255,3.6875,1.652287261,4.333333333,1.310080935,4.708333333,1.090741176
1,high_entitlement,9130,6,20794,group1,This desk is pretty heavy.,IS,Female,33,high,interaction,IS,5.25,1.850819255,3.6875,1.652287261,4.333333333,1.310080935,4.708333333,1.090741176
1,high_entitlement,16476,4,2471,group1,Could you help me move this stuff into my apartment?,M,Female,59,high,interaction,M,5.25,1.850819255,3.6875,1.652287261,4.333333333,1.310080935,4.708333333,1.090741176
1,high_entitlement,12548,11,42306,group1,Could you help me move this stuff into my apartment?,M,Female,49,high,interaction,M,5.25,1.850819255,3.6875,1.652287261,4.333333333,1.310080935,4.708333333,1.090741176
1,high_entitlement,8293,10,89974,group1,Is there any way you could help move my stuff?,W,Female,25,high,interaction,EM,5.25,1.850819255,3.6875,1.652287261,4.333333333,1.310080935,4.708333333,1.090741176
1,high_entitlement,17406,4,24041,group1,Could you help me move this stuff into my apartment?,M,Male,39,high,interaction,M,5.25,1.850819255,3.6875,1.652287261,4.333333333,1.310080935,4.708333333,1.090741176
1,high_entitlement,6261,10,66682,group1,Could you help me move this stuff into my apartment?,M,Female,29,high,interaction,M,5.25,1.850819255,3.6875,1.652287261,4.333333333,1.310080935,4.708333333,1.090741176
1,high_entitlement,3189,9,87326,group1,Could you help me move this stuff into my apartment?,M,Female,22,high,interaction,M,5.25,1.850819255,3.6875,1.652287261,4.333333333,1.310080935,4.708333333,1.090741176
1,high_entitlement,22230,9,87155,group1,Is there any way you could help move my stuff?,W,Male,26,high,interaction,EM,5.25,1.850819255,3.6875,1.652287261,4.333333333,1.310080935,4.708333333,1.090741176
1,high_entitlement,26040,5,80148,group1,Could you help me move this stuff into my apartment?,M,Female,33,high,interaction,M,5.25,1.850819255,3.6875,1.652287261,4.333333333,1.310080935,4.708333333,1.090741176
1,high_entitlement,1190,8,97756,group1,Could you help me move this stuff into my apartment?,M,Male,31,high,interaction,M,5.25,1.850819255,3.6875,1.652287261,4.333333333,1.310080935,4.708333333,1.090741176
1,high_entitlement,1954,6,8216,group1,Could you help me move this stuff into my apartment?,M,Male,29,high,interaction,M,5.25,1.850819255,3.6875,1.652287261,4.333333333,1.310080935,4.708333333,1.090741176
1,high_entitlement,11008,8,90211,group1,Could you help me move this stuff into my apartment?,M,Female,27,high,interaction,M,5.25,1.850819255,3.6875,1.652287261,4.333333333,1.310080935,4.708333333,1.090741176
1,high_entitlement,31792,2,16711,group1,Is there any way you could help move my stuff?,W,Female,42,high,interaction,EM,5.25,1.850819255,3.6875,1.652287261,4.333333333,1.310080935,4.708333333,1.090741176
1,high_entitlement,19882,7,24995,group1,"Hey, help me move my stuff.",D,Male,30,high,interaction,D,5.25,1.850819255,3.6875,1.652287261,4.333333333,1.310080935,4.708333333,1.090741176
1,high_entitlement,29161,7,55304,group1,"Hey, help me move my stuff.",D,Female,43,high,interaction,D,5.25,1.850819255,3.6875,1.652287261,4.333333333,1.310080935,4.708333333,1.090741176
1,low_entitlement,3617,9,1977,group2,This desk is pretty heavy.,IS,Male,33,low,interaction,IS,4.038461538,1.781842387,5.288461538,1.257706261,5.019230769,1.244444669,4.769230769,1.24641265
1,low_entitlement,31770,2,87512,group2,Could you help me move this stuff into my apartment?,M,Male,38,low,interaction,M,4.038461538,1.781842387,5.288461538,1.257706261,5.019230769,1.244444669,4.769230769,1.24641265
1,low_entitlement,7490,2,73328,group2,"Hey, help me move my stuff.",D,Male,25,low,interaction,D,4.038461538,1.781842387,5.288461538,1.257706261,5.019230769,1.244444669,4.769230769,1.24641265
1,low_entitlement,34268,4,50863,group2,Could you help me move this stuff into my apartment?,M,Male,23,low,interaction,M,4.038461538,1.781842387,5.288461538,1.257706261,5.019230769,1.244444669,4.769230769,1.24641265
1,low_entitlement,15212,11,71861,group2,Could you help me move this stuff into my apartment?,M,Male,30,low,interaction,M,4.038461538,1.781842387,5.288461538,1.257706261,5.019230769,1.244444669,4.769230769,1.24641265
1,low_entitlement,32151,8,3324,group2,Could you help me move this stuff into my apartment?,M,Male,41,low,interaction,M,4.038461538,1.781842387,5.288461538,1.257706261,5.019230769,1.244444669,4.769230769,1.24641265
1,low_entitlement,40743,3,8324,group2,Could you help me move this stuff into my apartment?,M,Female,30,low,interaction,M,4.038461538,1.781842387,5.288461538,1.257706261,5.019230769,1.244444669,4.769230769,1.24641265
1,low_entitlement,5205,9,74734,group2,Is there any way you could help move my stuff?,W,Female,31,low,interaction,EM,4.038461538,1.781842387,5.288461538,1.257706261,5.019230769,1.244444669,4.769230769,1.24641265
1,low_entitlement,25844,5,42146,group2,Could you help me move this stuff into my apartment?,M,Female,34,low,interaction,M,4.038461538,1.781842387,5.288461538,1.257706261,5.019230769,1.244444669,4.769230769,1.24641265
1,low_entitlement,31946,9,40239,group2,Is there any way you could help move my stuff?,W,Female,56,low,interaction,EM,4.038461538,1.781842387,5.288461538,1.257706261,5.019230769,1.244444669,4.769230769,1.24641265
1,low_entitlement,11632,10,45610,group2,Is there any way you could help move my stuff?,W,Female,21,low,interaction,EM,4.038461538,1.781842387,5.288461538,1.257706261,5.019230769,1.244444669,4.769230769,1.24641265
1,low_entitlement,15861,10,5514,group2,Is there any way you could help move my stuff?,W,Female,47,low,interaction,EM,4.038461538,1.781842387,5.288461538,1.257706261,5.019230769,1.244444669,4.769230769,1.24641265
1,low_entitlement,4363,2,13778,group2,Is there any way you could help move my stuff?,W,Male,37,low,interaction,EM,4.038461538,1.781842387,5.288461538,1.257706261,5.019230769,1.244444669,4.769230769,1.24641265
1,low_entitlement,9290,5,1593,group2,Could you help me move this stuff into my apartment?,M,Male,25,low,interaction,M,4.038461538,1.781842387,5.288461538,1.257706261,5.019230769,1.244444669,4.769230769,1.24641265
1,low_entitlement,4306,8,65743,group2,This desk is pretty heavy.,IS,Male,26,low,interaction,IS,4.038461538,1.781842387,5.288461538,1.257706261,5.019230769,1.244444669,4.769230769,1.24641265
1,low_entitlement,29229,4,97151,group2,Could you help me move this stuff into my apartment?,M,Male,27,low,interaction,M,4.038461538,1.781842387,5.288461538,1.257706261,5.019230769,1.244444669,4.769230769,1.24641265
1,low_entitlement,29720,3,28542,group2,Is there any way you could help move my stuff?,W,Male,25,low,interaction,EM,4.038461538,1.781842387,5.288461538,1.257706261,5.019230769,1.244444669,4.769230769,1.24641265
1,low_entitlement,2481,5,74166,group2,Is there any way you could help move my stuff?,W,Male,25,low,interaction,EM,4.038461538,1.781842387,5.288461538,1.257706261,5.019230769,1.244444669,4.769230769,1.24641265
1,low_entitlement,28987,6,87775,group2,Is there any way you could help move my stuff?,W,Male,22,low,interaction,EM,4.038461538,1.781842387,5.288461538,1.257706261,5.019230769,1.244444669,4.769230769,1.24641265
1,low_entitlement,2668,8,91548,group2,"Hey, help me move my stuff.",D,Male,26,low,interaction,D,4.038461538,1.781842387,5.288461538,1.257706261,5.019230769,1.244444669,4.769230769,1.24641265
1,low_entitlement,30376,2,90609,group2,Is there any way you could help move my stuff?,W,Female,21,low,interaction,EM,4.038461538,1.781842387,5.288461538,1.257706261,5.019230769,1.244444669,4.769230769,1.24641265
1,low_entitlement,3569,8,75614,group2,Could you help me move this stuff into my apartment?,M,Male,47,low,interaction,M,4.038461538,1.781842387,5.288461538,1.257706261,5.019230769,1.244444669,4.769230769,1.24641265
1,low_entitlement,19686,2,55991,group2,Is there any way you could help move my stuff?,W,Female,27,low,interaction,EM,4.038461538,1.781842387,5.288461538,1.257706261,5.019230769,1.244444669,4.769230769,1.24641265
1,low_entitlement,18065,5,22282,group2,Could you help me move this stuff into my apartment?,M,Male,43,low,interaction,M,4.038461538,1.781842387,5.288461538,1.257706261,5.019230769,1.244444669,4.769230769,1.24641265
1,low_entitlement,5446,9,44710,group2,Could you help me move this stuff into my apartment?,M,Male,24,low,interaction,M,4.038461538,1.781842387,5.288461538,1.257706261,5.019230769,1.244444669,4.769230769,1.24641265
1,low_entitlement,22063,4,90079,group2,Is there any way you could help move my stuff?,W,Male,39,low,interaction,EM,4.038461538,1.781842387,5.288461538,1.257706261,5.019230769,1.244444669,4.769230769,1.24641265
1,low_entitlement,8515,8,74278,group2,"Hey, help me move my stuff.",D,Male,25,low,interaction,D,4.038461538,1.781842387,5.288461538,1.257706261,5.019230769,1.244444669,4.769230769,1.24641265
1,low_entitlement,17025,7,19424,group2,Is there any way you could help move my stuff?,W,Female,52,low,interaction,EM,4.038461538,1.781842387,5.288461538,1.257706261,5.019230769,1.244444669,4.769230769,1.24641265
1,low_entitlement,1928,8,83161,group2,This desk is pretty heavy.,IS,Male,30,low,interaction,IS,4.038461538,1.781842387,5.288461538,1.257706261,5.019230769,1.244444669,4.769230769,1.24641265
1,low_entitlement,3649,6,45177,group2,Is there any way you could help move my stuff?,W,Male,29,low,interaction,EM,4.038461538,1.781842387,5.288461538,1.257706261,5.019230769,1.244444669,4.769230769,1.24641265
1,low_entitlement,15302,9,86881,group2,Could you help me move this stuff into my apartment?,M,Female,20,low,interaction,M,4.038461538,1.781842387,5.288461538,1.257706261,5.019230769,1.244444669,4.769230769,1.24641265
1,low_entitlement,14964,5,48563,group2,Is there any way you could help move my stuff?,W,Male,25,low,interaction,EM,4.038461538,1.781842387,5.288461538,1.257706261,5.019230769,1.244444669,4.769230769,1.24641265
1,low_entitlement,21144,8,7349,group2,Could you help me move this stuff into my apartment?,M,Male,33,low,interaction,M,4.038461538,1.781842387,5.288461538,1.257706261,5.019230769,1.244444669,4.769230769,1.24641265
1,low_entitlement,60737,6,81470,group2,Could you help me move this stuff into my apartment?,M,Male,36,low,interaction,M,4.038461538,1.781842387,5.288461538,1.257706261,5.019230769,1.244444669,4.769230769,1.24641265
1,low_entitlement,17891,10,25273,group2,Is there any way you could help move my stuff?,W,Male,48,low,interaction,EM,4.038461538,1.781842387,5.288461538,1.257706261,5.019230769,1.244444669,4.769230769,1.24641265
1,low_entitlement,22379,8,28114,group2,Could you help me move this stuff into my apartment?,M,Female,40,low,interaction,M,4.038461538,1.781842387,5.288461538,1.257706261,5.019230769,1.244444669,4.769230769,1.24641265
1,low_entitlement,23100,4,79859,group2,Could you help me move this stuff into my apartment?,M,Female,27,low,interaction,M,4.038461538,1.781842387,5.288461538,1.257706261,5.019230769,1.244444669,4.769230769,1.24641265
1,low_entitlement,18833,6,94407,group2,Is there any way you could help move my stuff?,W,Male,27,low,interaction,EM,4.038461538,1.781842387,5.288461538,1.257706261,5.019230769,1.244444669,4.769230769,1.24641265
1,low_entitlement,14202,4,98986,group2,Is there any way you could help move my stuff?,W,Female,34,low,interaction,EM,4.038461538,1.781842387,5.288461538,1.257706261,5.019230769,1.244444669,4.769230769,1.24641265
1,low_entitlement,22144,9,9171,group2,Could you help me move this stuff into my apartment?,M,Male,43,low,interaction,M,4.038461538,1.781842387,5.288461538,1.257706261,5.019230769,1.244444669,4.769230769,1.24641265
1,low_entitlement,23281,2,56171,group2,Is there any way you could help move my stuff?,W,Female,48,low,interaction,EM,4.038461538,1.781842387,5.288461538,1.257706261,5.019230769,1.244444669,4.769230769,1.24641265
1,low_entitlement,15689,5,70928,group2,Could you help me move this stuff into my apartment?,M,Male,30,low,interaction,M,4.038461538,1.781842387,5.288461538,1.257706261,5.019230769,1.244444669,4.769230769,1.24641265
1,low_entitlement,29497,6,85567,group2,Could you help me move this stuff into my apartment?,M,Male,33,low,interaction,M,4.038461538,1.781842387,5.288461538,1.257706261,5.019230769,1.244444669,4.769230769,1.24641265
1,low_entitlement,37698,9,36333,group2,Could you help me move this stuff into my apartment?,M,Female,42,low,interaction,M,4.038461538,1.781842387,5.288461538,1.257706261,5.019230769,1.244444669,4.769230769,1.24641265
1,low_entitlement,89901,3,76012,group2,Is there any way you could help move my stuff?,W,Male,27,low,interaction,EM,4.038461538,1.781842387,5.288461538,1.257706261,5.019230769,1.244444669,4.769230769,1.24641265
1,low_entitlement,19513,9,43477,group2,Could you help me move this stuff into my apartment?,M,Male,26,low,interaction,M,4.038461538,1.781842387,5.288461538,1.257706261,5.019230769,1.244444669,4.769230769,1.24641265
1,low_entitlement,23368,11,16670,group2,"Hey, help me move my stuff.",D,Male,30,low,interaction,D,4.038461538,1.781842387,5.288461538,1.257706261,5.019230769,1.244444669,4.769230769,1.24641265
10,high_entitlement,10009,2,75614,group2,I need you to drive me to the doctor.,D,Male,47,high,urgency,D,5.924528302,1.806495296,3.320754717,2.146316925,5.339622642,1.300050239,2.452830189,2.162317469
10,high_entitlement,15141,8,85567,group2,I need you to drive me to the doctor.,D,Male,33,high,urgency,D,5.924528302,1.806495296,3.320754717,2.146316925,5.339622642,1.300050239,2.452830189,2.162317469
10,high_entitlement,32517,5,36333,group2,Could you drive me to the doctor?,M,Female,42,high,urgency,M,5.924528302,1.806495296,3.320754717,2.146316925,5.339622642,1.300050239,2.452830189,2.162317469
10,high_entitlement,15589,8,25273,group2,I need you to drive me to the doctor.,D,Male,48,high,urgency,D,5.924528302,1.806495296,3.320754717,2.146316925,5.339622642,1.300050239,2.452830189,2.162317469
10,high_entitlement,13082,6,87512,group2,Could you drive me to the doctor?,M,Male,38,high,urgency,M,5.924528302,1.806495296,3.320754717,2.146316925,5.339622642,1.300050239,2.452830189,2.162317469
10,high_entitlement,43142,9,8324,group2,I need you to drive me to the doctor.,D,Female,30,high,urgency,D,5.924528302,1.806495296,3.320754717,2.146316925,5.339622642,1.300050239,2.452830189,2.162317469
10,high_entitlement,2836,2,74278,group2,I don't know how to get to the doctor.,IS,Male,25,high,urgency,IS,5.924528302,1.806495296,3.320754717,2.146316925,5.339622642,1.300050239,2.452830189,2.162317469
10,high_entitlement,42360,8,48563,group2,I need you to drive me to the doctor.,D,Male,25,high,urgency,D,5.924528302,1.806495296,3.320754717,2.146316925,5.339622642,1.300050239,2.452830189,2.162317469
10,high_entitlement,13234,3,19424,group2,I need you to drive me to the doctor.,D,Female,52,high,urgency,D,5.924528302,1.806495296,3.320754717,2.146316925,5.339622642,1.300050239,2.452830189,2.162317469
10,high_entitlement,12953,10,74166,group2,Could you drive me to the doctor?,M,Male,25,high,urgency,M,5.924528302,1.806495296,3.320754717,2.146316925,5.339622642,1.300050239,2.452830189,2.162317469
10,high_entitlement,7788,3,45177,group2,I was wondering if you could give me a ride to the doctor?,W,Male,29,high,urgency,EM,5.924528302,1.806495296,3.320754717,2.146316925,5.339622642,1.300050239,2.452830189,2.162317469
10,high_entitlement,54945,9,90609,group2,I need you to drive me to the doctor.,D,Female,21,high,urgency,D,5.924528302,1.806495296,3.320754717,2.146316925,5.339622642,1.300050239,2.452830189,2.162317469
10,high_entitlement,3762,7,1977,group2,Could you drive me to the doctor?,M,Male,33,high,urgency,M,5.924528302,1.806495296,3.320754717,2.146316925,5.339622642,1.300050239,2.452830189,2.162317469
10,high_entitlement,3116,11,74734,group2,Could you drive me to the doctor?,M,Female,31,high,urgency,M,5.924528302,1.806495296,3.320754717,2.146316925,5.339622642,1.300050239,2.452830189,2.162317469
10,high_entitlement,26138,10,56171,group2,I need you to drive me to the doctor.,D,Female,48,high,urgency,D,5.924528302,1.806495296,3.320754717,2.146316925,5.339622642,1.300050239,2.452830189,2.162317469
10,high_entitlement,22310,2,45610,group2,I need you to drive me to the doctor.,D,Female,21,high,urgency,D,5.924528302,1.806495296,3.320754717,2.146316925,5.339622642,1.300050239,2.452830189,2.162317469
10,high_entitlement,3508,9,13778,group2,I was wondering if you could give me a ride to the doctor?,W,Male,37,high,urgency,EM,5.924528302,1.806495296,3.320754717,2.146316925,5.339622642,1.300050239,2.452830189,2.162317469
10,high_entitlement,7986,2,40239,group2,I need you to drive me to the doctor.,D,Female,56,high,urgency,D,5.924528302,1.806495296,3.320754717,2.146316925,5.339622642,1.300050239,2.452830189,2.162317469
10,high_entitlement,3210,5,28542,group2,I need you to drive me to the doctor.,D,Male,25,high,urgency,D,5.924528302,1.806495296,3.320754717,2.146316925,5.339622642,1.300050239,2.452830189,2.162317469
10,high_entitlement,18056,7,43477,group2,I need you to drive me to the doctor.,D,Male,26,high,urgency,D,5.924528302,1.806495296,3.320754717,2.146316925,5.339622642,1.300050239,2.452830189,2.162317469
10,high_entitlement,2698,9,1593,group2,I don't know how to get to the doctor.,IS,Male,25,high,urgency,IS,5.924528302,1.806495296,3.320754717,2.146316925,5.339622642,1.300050239,2.452830189,2.162317469
10,high_entitlement,26623,3,94407,group2,Could you drive me to the doctor?,M,Male,27,high,urgency,M,5.924528302,1.806495296,3.320754717,2.146316925,5.339622642,1.300050239,2.452830189,2.162317469
10,high_entitlement,21030,10,97151,group2,Could you drive me to the doctor?,M,Male,27,high,urgency,M,5.924528302,1.806495296,3.320754717,2.146316925,5.339622642,1.300050239,2.452830189,2.162317469
10,high_entitlement,27676,8,79859,group2,Could you drive me to the doctor?,M,Female,27,high,urgency,M,5.924528302,1.806495296,3.320754717,2.146316925,5.339622642,1.300050239,2.452830189,2.162317469
10,high_entitlement,41805,3,55991,group2,I was wondering if you could give me a ride to the doctor?,W,Female,27,high,urgency,EM,5.924528302,1.806495296,3.320754717,2.146316925,5.339622642,1.300050239,2.452830189,2.162317469
10,high_entitlement,8910,6,22282,group2,Could you drive me to the doctor?,M,Male,43,high,urgency,M,5.924528302,1.806495296,3.320754717,2.146316925,5.339622642,1.300050239,2.452830189,2.162317469
10,high_entitlement,8978,9,76012,group2,I need you to drive me to the doctor.,D,Male,27,high,urgency,D,5.924528302,1.806495296,3.320754717,2.146316925,5.339622642,1.300050239,2.452830189,2.162317469
10,high_entitlement,22821,5,90079,group2,I need you to drive me to the doctor.,D,Male,39,high,urgency,D,5.924528302,1.806495296,3.320754717,2.146316925,5.339622642,1.300050239,2.452830189,2.162317469
10,high_entitlement,32952,4,3324,group2,Could you drive me to the doctor?,M,Male,41,high,urgency,M,5.924528302,1.806495296,3.320754717,2.146316925,5.339622642,1.300050239,2.452830189,2.162317469
10,high_entitlement,15463,4,71861,group2,I was wondering if you could give me a ride to the doctor?,W,Male,30,high,urgency,EM,5.924528302,1.806495296,3.320754717,2.146316925,5.339622642,1.300050239,2.452830189,2.162317469
10,high_entitlement,3153,11,65743,group2,I need you to drive me to the doctor.,D,Male,26,high,urgency,D,5.924528302,1.806495296,3.320754717,2.146316925,5.339622642,1.300050239,2.452830189,2.162317469
10,high_entitlement,32129,3,86881,group2,I was wondering if you could give me a ride to the doctor?,W,Female,20,high,urgency,EM,5.924528302,1.806495296,3.320754717,2.146316925,5.339622642,1.300050239,2.452830189,2.162317469
10,high_entitlement,7125,8,87775,group2,Could you drive me to the doctor?,M,Male,22,high,urgency,M,5.924528302,1.806495296,3.320754717,2.146316925,5.339622642,1.300050239,2.452830189,2.162317469
10,high_entitlement,20874,8,81470,group2,I need you to drive me to the doctor.,D,Male,36,high,urgency,D,5.924528302,1.806495296,3.320754717,2.146316925,5.339622642,1.300050239,2.452830189,2.162317469
10,high_entitlement,14562,4,7349,group2,I need you to drive me to the doctor.,D,Male,33,high,urgency,D,5.924528302,1.806495296,3.320754717,2.146316925,5.339622642,1.300050239,2.452830189,2.162317469
10,high_entitlement,9386,5,98986,group2,I need you to drive me to the doctor.,D,Female,34,high,urgency,D,5.924528302,1.806495296,3.320754717,2.146316925,5.339622642,1.300050239,2.452830189,2.162317469
10,high_entitlement,2607,11,83161,group2,I was wondering if you could give me a ride to the doctor?,W,Male,30,high,urgency,EM,5.924528302,1.806495296,3.320754717,2.146316925,5.339622642,1.300050239,2.452830189,2.162317469
10,high_entitlement,2116,5,91548,group2,I need you to drive me to the doctor.,D,Male,26,high,urgency,D,5.924528302,1.806495296,3.320754717,2.146316925,5.339622642,1.300050239,2.452830189,2.162317469
10,high_entitlement,12718,3,70928,group2,Could you drive me to the doctor?,M,Male,30,high,urgency,M,5.924528302,1.806495296,3.320754717,2.146316925,5.339622642,1.300050239,2.452830189,2.162317469
10,high_entitlement,10071,7,42146,group2,Could you drive me to the doctor?,M,Female,34,high,urgency,M,5.924528302,1.806495296,3.320754717,2.146316925,5.339622642,1.300050239,2.452830189,2.162317469
10,high_entitlement,21513,2,44710,group2,I need you to drive me to the doctor.,D,Male,24,high,urgency,D,5.924528302,1.806495296,3.320754717,2.146316925,5.339622642,1.300050239,2.452830189,2.162317469
10,high_entitlement,21931,3,5514,group2,I was wondering if you could give me a ride to the doctor?,W,Female,47,high,urgency,EM,5.924528302,1.806495296,3.320754717,2.146316925,5.339622642,1.300050239,2.452830189,2.162317469
10,high_entitlement,21235,4,28114,group2,I need you to drive me to the doctor.,D,Female,40,high,urgency,D,5.924528302,1.806495296,3.320754717,2.146316925,5.339622642,1.300050239,2.452830189,2.162317469
10,high_entitlement,1999,10,73328,group2,I was wondering if you could give me a ride to the doctor?,W,Male,25,high,urgency,EM,5.924528302,1.806495296,3.320754717,2.146316925,5.339622642,1.300050239,2.452830189,2.162317469
10,high_entitlement,27807,10,16670,group2,I need you to drive me to the doctor.,D,Male,30,high,urgency,D,5.924528302,1.806495296,3.320754717,2.146316925,5.339622642,1.300050239,2.452830189,2.162317469
10,high_entitlement,25613,10,9171,group2,I need you to drive me to the doctor.,D,Male,43,high,urgency,D,5.924528302,1.806495296,3.320754717,2.146316925,5.339622642,1.300050239,2.452830189,2.162317469
10,high_entitlement,22709,7,50863,group2,I need you to drive me to the doctor.,D,Male,23,high,urgency,D,5.924528302,1.806495296,3.320754717,2.146316925,5.339622642,1.300050239,2.452830189,2.162317469
10,low_entitlement,13850,9,16711,group1,Could you drive me to the doctor?,M,Female,42,low,urgency,M,5.791666667,1.761990332,2.666666667,1.766512773,4.468085106,1.717569869,2.145833333,2.031555146
10,low_entitlement,2340,9,71391,group1,I was wondering if you could give me a ride to the doctor?,W,Male,29,low,urgency,EM,5.791666667,1.761990332,2.666666667,1.766512773,4.468085106,1.717569869,2.145833333,2.031555146
10,low_entitlement,22472,9,7044,group1,Could you drive me to the doctor?,M,Female,23,low,urgency,M,5.791666667,1.761990332,2.666666667,1.766512773,4.468085106,1.717569869,2.145833333,2.031555146
10,low_entitlement,51996,11,95061,group1,I was wondering if you could give me a ride to the doctor?,W,Female,33,low,urgency,EM,5.791666667,1.761990332,2.666666667,1.766512773,4.468085106,1.717569869,2.145833333,2.031555146
10,low_entitlement,4141,8,34496,group1,Could you drive me to the doctor?,M,Male,27,low,urgency,M,5.791666667,1.761990332,2.666666667,1.766512773,4.468085106,1.717569869,2.145833333,2.031555146
10,low_entitlement,14978,8,61519,group1,Could you drive me to the doctor?,M,Male,37,low,urgency,M,5.791666667,1.761990332,2.666666667,1.766512773,4.468085106,1.717569869,2.145833333,2.031555146
10,low_entitlement,44733,4,90211,group1,I need you to drive me to the doctor.,D,Female,27,low,urgency,D,5.791666667,1.761990332,2.666666667,1.766512773,4.468085106,1.717569869,2.145833333,2.031555146
10,low_entitlement,7857,6,46162,group1,I was wondering if you could give me a ride to the doctor?,W,Male,35,low,urgency,EM,5.791666667,1.761990332,2.666666667,1.766512773,4.468085106,1.717569869,2.145833333,2.031555146
10,low_entitlement,5911,4,81283,group1,I was wondering if you could give me a ride to the doctor?,W,Female,30,low,urgency,EM,5.791666667,1.761990332,2.666666667,1.766512773,4.468085106,1.717569869,2.145833333,2.031555146
10,low_entitlement,2295,8,45852,group1,I was wondering if you could give me a ride to the doctor?,W,Male,27,low,urgency,EM,5.791666667,1.761990332,2.666666667,1.766512773,4.468085106,1.717569869,2.145833333,2.031555146
10,low_entitlement,11254,2,87326,group1,Could you drive me to the doctor?,M,Female,22,low,urgency,M,5.791666667,1.761990332,2.666666667,1.766512773,4.468085106,1.717569869,2.145833333,2.031555146
10,low_entitlement,7567,10,32379,group1,Could you drive me to the doctor?,M,Male,23,low,urgency,M,5.791666667,1.761990332,2.666666667,1.766512773,4.468085106,1.717569869,2.145833333,2.031555146
10,low_entitlement,2868,7,33903,group1,Could you drive me to the doctor?,M,Female,32,low,urgency,M,5.791666667,1.761990332,2.666666667,1.766512773,4.468085106,1.717569869,2.145833333,2.031555146
10,low_entitlement,1745,6,11674,group1,I don't know how to get to the doctor.,IS,Male,41,low,urgency,IS,5.791666667,1.761990332,2.666666667,1.766512773,4.468085106,1.717569869,2.145833333,2.031555146
10,low_entitlement,7212,8,24041,group1,I need you to drive me to the doctor.,D,Male,39,low,urgency,D,5.791666667,1.761990332,2.666666667,1.766512773,4.468085106,1.717569869,2.145833333,2.031555146
10,low_entitlement,45853,3,66682,group1,I need you to drive me to the doctor.,D,Female,29,low,urgency,D,5.791666667,1.761990332,2.666666667,1.766512773,4.468085106,1.717569869,2.145833333,2.031555146
10,low_entitlement,21740,10,42017,group1,Could you drive me to the doctor?,M,Female,37,low,urgency,M,5.791666667,1.761990332,2.666666667,1.766512773,4.468085106,1.717569869,2.145833333,2.031555146
10,low_entitlement,23901,11,58332,group1,Could you drive me to the doctor?,M,Male,65,low,urgency,M,5.791666667,1.761990332,2.666666667,1.766512773,4.468085106,1.717569869,2.145833333,2.031555146
10,low_entitlement,22137,11,57860,group1,Could you drive me to the doctor?,M,Male,35,low,urgency,M,5.791666667,1.761990332,2.666666667,1.766512773,4.468085106,1.717569869,2.145833333,2.031555146
10,low_entitlement,4730,8,67700,group1,I need you to drive me to the doctor.,D,Male,29,low,urgency,D,5.791666667,1.761990332,2.666666667,1.766512773,4.468085106,1.717569869,2.145833333,2.031555146
10,low_entitlement,21058,8,55304,group1,Could you drive me to the doctor?,M,Female,43,low,urgency,M,5.791666667,1.761990332,2.666666667,1.766512773,4.468085106,1.717569869,2.145833333,2.031555146
10,low_entitlement,13042,7,87155,group1,Could you drive me to the doctor?,M,Male,26,low,urgency,M,5.791666667,1.761990332,2.666666667,1.766512773,4.468085106,1.717569869,2.145833333,2.031555146
10,low_entitlement,18060,8,80148,group1,Could you drive me to the doctor?,M,Female,33,low,urgency,M,5.791666667,1.761990332,2.666666667,1.766512773,4.468085106,1.717569869,2.145833333,2.031555146
10,low_entitlement,3422,11,64887,group1,I need you to drive me to the doctor.,D,Female,30,low,urgency,D,5.791666667,1.761990332,2.666666667,1.766512773,4.468085106,1.717569869,2.145833333,2.031555146
10,low_entitlement,7026,10,24995,group1,Could you drive me to the doctor?,M,Male,30,low,urgency,M,5.791666667,1.761990332,2.666666667,1.766512773,4.468085106,1.717569869,2.145833333,2.031555146
10,low_entitlement,7174,10,94652,group1,I was wondering if you could give me a ride to the doctor?,W,Female,58,low,urgency,EM,5.791666667,1.761990332,2.666666667,1.766512773,4.468085106,1.717569869,2.145833333,2.031555146
10,low_entitlement,11285,2,24718,group1,I was wondering if you could give me a ride to the doctor?,W,Female,40,low,urgency,EM,5.791666667,1.761990332,2.666666667,1.766512773,4.468085106,1.717569869,2.145833333,2.031555146
10,low_entitlement,1382,9,97756,group1,Could you drive me to the doctor?,M,Male,31,low,urgency,M,5.791666667,1.761990332,2.666666667,1.766512773,4.468085106,1.717569869,2.145833333,2.031555146
10,low_entitlement,15632,2,2471,group1,I was wondering if you could give me a ride to the doctor?,W,Female,59,low,urgency,EM,5.791666667,1.761990332,2.666666667,1.766512773,4.468085106,1.717569869,2.145833333,2.031555146
10,low_entitlement,4076,8,20794,group1,I was wondering if you could give me a ride to the doctor?,W,Female,33,low,urgency,EM,5.791666667,1.761990332,2.666666667,1.766512773,4.468085106,1.717569869,2.145833333,2.031555146
10,low_entitlement,7249,10,56292,group1,I was wondering if you could give me a ride to the doctor?,W,Female,31,low,urgency,EM,5.791666667,1.761990332,2.666666667,1.766512773,4.468085106,1.717569869,2.145833333,2.031555146
10,low_entitlement,6602,3,89974,group1,Could you drive me to the doctor?,M,Female,25,low,urgency,M,5.791666667,1.761990332,2.666666667,1.766512773,4.468085106,1.717569869,2.145833333,2.031555146
10,low_entitlement,74655,3,8216,group1,Could you drive me to the doctor?,M,Male,29,low,urgency,M,5.791666667,1.761990332,2.666666667,1.766512773,4.468085106,1.717569869,2.145833333,2.031555146
10,low_entitlement,37290,3,42306,group1,Could you drive me to the doctor?,M,Female,49,low,urgency,M,5.791666667,1.761990332,2.666666667,1.766512773,4.468085106,1.717569869,2.145833333,2.031555146
2,high_entitlement,4118,10,1977,group2,Can you help me out with the rent?,M,Male,33,high,interaction,M,5.622641509,1.913780141,4.830188679,1.553356775,4.79245283,1.633289396,5.20754717,1.245893108
2,high_entitlement,13749,6,42146,group2,Would it be at all possible to help me out with the rent?,W,Female,34,high,interaction,EM,5.622641509,1.913780141,4.830188679,1.553356775,4.79245283,1.633289396,5.20754717,1.245893108
2,high_entitlement,12241,11,5514,group2,Would it be at all possible to help me out with the rent?,W,Female,47,high,interaction,EM,5.622641509,1.913780141,4.830188679,1.553356775,4.79245283,1.633289396,5.20754717,1.245893108
2,high_entitlement,13650,10,40239,group2,"I'm short on cash this month, and rent is coming up.",IS,Female,56,high,interaction,IS,5.622641509,1.913780141,4.830188679,1.553356775,4.79245283,1.633289396,5.20754717,1.245893108
2,high_entitlement,19887,9,48563,group2,Can you help me out with the rent?,M,Male,25,high,interaction,M,5.622641509,1.913780141,4.830188679,1.553356775,4.79245283,1.633289396,5.20754717,1.245893108
2,high_entitlement,11687,6,43477,group2,Can you help me out with the rent?,M,Male,26,high,interaction,M,5.622641509,1.913780141,4.830188679,1.553356775,4.79245283,1.633289396,5.20754717,1.245893108
2,high_entitlement,30825,6,36333,group2,Can you help me out with the rent?,M,Female,42,high,interaction,M,5.622641509,1.913780141,4.830188679,1.553356775,4.79245283,1.633289396,5.20754717,1.245893108
2,high_entitlement,14991,9,71861,group2,"I'm short on cash this month, and rent is coming up.",IS,Male,30,high,interaction,IS,5.622641509,1.913780141,4.830188679,1.553356775,4.79245283,1.633289396,5.20754717,1.245893108
2,high_entitlement,10921,10,7349,group2,"I'm short on cash this month, and rent is coming up.",IS,Male,33,high,interaction,IS,5.622641509,1.913780141,4.830188679,1.553356775,4.79245283,1.633289396,5.20754717,1.245893108
2,high_entitlement,1881,9,65743,group2,Would it be at all possible to help me out with the rent?,W,Male,26,high,interaction,EM,5.622641509,1.913780141,4.830188679,1.553356775,4.79245283,1.633289396,5.20754717,1.245893108
2,high_entitlement,6466,4,45177,group2,Would it be at all possible to help me out with the rent?,W,Male,29,high,interaction,EM,5.622641509,1.913780141,4.830188679,1.553356775,4.79245283,1.633289396,5.20754717,1.245893108
2,high_entitlement,1740,6,13778,group2,"I'm short on cash this month, and rent is coming up.",IS,Male,37,high,interaction,IS,5.622641509,1.913780141,4.830188679,1.553356775,4.79245283,1.633289396,5.20754717,1.245893108
2,high_entitlement,9115,10,87775,group2,Can you help me out with the rent?,M,Male,22,high,interaction,M,5.622641509,1.913780141,4.830188679,1.553356775,4.79245283,1.633289396,5.20754717,1.245893108
2,high_entitlement,3580,6,44710,group2,Would it be at all possible to help me out with the rent?,W,Male,24,high,interaction,EM,5.622641509,1.913780141,4.830188679,1.553356775,4.79245283,1.633289396,5.20754717,1.245893108
2,high_entitlement,23034,7,3324,group2,Can you help me out with the rent?,M,Male,41,high,interaction,M,5.622641509,1.913780141,4.830188679,1.553356775,4.79245283,1.633289396,5.20754717,1.245893108
2,high_entitlement,10650,5,45610,group2,Would it be at all possible to help me out with the rent?,W,Female,21,high,interaction,EM,5.622641509,1.913780141,4.830188679,1.553356775,4.79245283,1.633289396,5.20754717,1.245893108
2,high_entitlement,23677,3,50863,group2,Would it be at all possible to help me out with the rent?,W,Male,23,high,interaction,EM,5.622641509,1.913780141,4.830188679,1.553356775,4.79245283,1.633289396,5.20754717,1.245893108
2,high_entitlement,15377,4,55991,group2,Would it be at all possible to help me out with the rent?,W,Female,27,high,interaction,EM,5.622641509,1.913780141,4.830188679,1.553356775,4.79245283,1.633289396,5.20754717,1.245893108
2,high_entitlement,12785,4,76012,group2,Can you help me out with the rent?,M,Male,27,high,interaction,M,5.622641509,1.913780141,4.830188679,1.553356775,4.79245283,1.633289396,5.20754717,1.245893108
2,high_entitlement,18067,11,85567,group2,I need you to cover my rent this month.,D,Male,33,high,interaction,D,5.622641509,1.913780141,4.830188679,1.553356775,4.79245283,1.633289396,5.20754717,1.245893108
2,high_entitlement,15136,9,97151,group2,Would it be at all possible to help me out with the rent?,W,Male,27,high,interaction,EM,5.622641509,1.913780141,4.830188679,1.553356775,4.79245283,1.633289396,5.20754717,1.245893108
2,high_entitlement,21331,3,79859,group2,Can you help me out with the rent?,M,Female,27,high,interaction,M,5.622641509,1.913780141,4.830188679,1.553356775,4.79245283,1.633289396,5.20754717,1.245893108
2,high_entitlement,4323,3,91548,group2,Can you help me out with the rent?,M,Male,26,high,interaction,M,5.622641509,1.913780141,4.830188679,1.553356775,4.79245283,1.633289396,5.20754717,1.245893108
2,high_entitlement,9212,10,28114,group2,Can you help me out with the rent?,M,Female,40,high,interaction,M,5.622641509,1.913780141,4.830188679,1.553356775,4.79245283,1.633289396,5.20754717,1.245893108
2,high_entitlement,15249,8,90079,group2,Would it be at all possible to help me out with the rent?,W,Male,39,high,interaction,EM,5.622641509,1.913780141,4.830188679,1.553356775,4.79245283,1.633289396,5.20754717,1.245893108
2,high_entitlement,14145,9,56171,group2,Can you help me out with the rent?,M,Female,48,high,interaction,M,5.622641509,1.913780141,4.830188679,1.553356775,4.79245283,1.633289396,5.20754717,1.245893108
2,high_entitlement,10983,3,25273,group2,Would it be at all possible to help me out with the rent?,W,Male,48,high,interaction,EM,5.622641509,1.913780141,4.830188679,1.553356775,4.79245283,1.633289396,5.20754717,1.245893108
2,high_entitlement,4146,7,28542,group2,I need you to cover my rent this month.,D,Male,25,high,interaction,D,5.622641509,1.913780141,4.830188679,1.553356775,4.79245283,1.633289396,5.20754717,1.245893108
2,high_entitlement,64809,2,16670,group2,Can you help me out with the rent?,M,Male,30,high,interaction,M,5.622641509,1.913780141,4.830188679,1.553356775,4.79245283,1.633289396,5.20754717,1.245893108
2,high_entitlement,29829,4,8324,group2,I need you to cover my rent this month.,D,Female,30,high,interaction,D,5.622641509,1.913780141,4.830188679,1.553356775,4.79245283,1.633289396,5.20754717,1.245893108
2,high_entitlement,12018,6,98986,group2,Can you help me out with the rent?,M,Female,34,high,interaction,M,5.622641509,1.913780141,4.830188679,1.553356775,4.79245283,1.633289396,5.20754717,1.245893108
2,high_entitlement,14450,7,70928,group2,Can you help me out with the rent?,M,Male,30,high,interaction,M,5.622641509,1.913780141,4.830188679,1.553356775,4.79245283,1.633289396,5.20754717,1.245893108
2,high_entitlement,40204,10,87512,group2,Can you help me out with the rent?,M,Male,38,high,interaction,M,5.622641509,1.913780141,4.830188679,1.553356775,4.79245283,1.633289396,5.20754717,1.245893108
2,high_entitlement,7689,8,1593,group2,I need you to cover my rent this month.,D,Male,25,high,interaction,D,5.622641509,1.913780141,4.830188679,1.553356775,4.79245283,1.633289396,5.20754717,1.245893108
2,high_entitlement,11954,4,74166,group2,Can you help me out with the rent?,M,Male,25,high,interaction,M,5.622641509,1.913780141,4.830188679,1.553356775,4.79245283,1.633289396,5.20754717,1.245893108
2,high_entitlement,1476,11,73328,group2,Would it be at all possible to help me out with the rent?,W,Male,25,high,interaction,EM,5.622641509,1.913780141,4.830188679,1.553356775,4.79245283,1.633289396,5.20754717,1.245893108
2,high_entitlement,4581,4,74734,group2,Can you help me out with the rent?,M,Female,31,high,interaction,M,5.622641509,1.913780141,4.830188679,1.553356775,4.79245283,1.633289396,5.20754717,1.245893108
2,high_entitlement,7906,9,74278,group2,I need you to cover my rent this month.,D,Male,25,high,interaction,D,5.622641509,1.913780141,4.830188679,1.553356775,4.79245283,1.633289396,5.20754717,1.245893108
2,high_entitlement,11551,4,75614,group2,I need you to cover my rent this month.,D,Male,47,high,interaction,D,5.622641509,1.913780141,4.830188679,1.553356775,4.79245283,1.633289396,5.20754717,1.245893108
2,high_entitlement,7732,10,90609,group2,Would it be at all possible to help me out with the rent?,W,Female,21,high,interaction,EM,5.622641509,1.913780141,4.830188679,1.553356775,4.79245283,1.633289396,5.20754717,1.245893108
2,high_entitlement,8402,10,22282,group2,I need you to cover my rent this month.,D,Male,43,high,interaction,D,5.622641509,1.913780141,4.830188679,1.553356775,4.79245283,1.633289396,5.20754717,1.245893108
2,high_entitlement,27430,2,19424,group2,Would it be at all possible to help me out with the rent?,W,Female,52,high,interaction,EM,5.622641509,1.913780141,4.830188679,1.553356775,4.79245283,1.633289396,5.20754717,1.245893108
2,high_entitlement,68579,2,94407,group2,Would it be at all possible to help me out with the rent?,W,Male,27,high,interaction,EM,5.622641509,1.913780141,4.830188679,1.553356775,4.79245283,1.633289396,5.20754717,1.245893108
2,high_entitlement,97733,5,81470,group2,Would it be at all possible to help me out with the rent?,W,Male,36,high,interaction,EM,5.622641509,1.913780141,4.830188679,1.553356775,4.79245283,1.633289396,5.20754717,1.245893108
2,high_entitlement,27271,7,86881,group2,Would it be at all possible to help me out with the rent?,W,Female,20,high,interaction,EM,5.622641509,1.913780141,4.830188679,1.553356775,4.79245283,1.633289396,5.20754717,1.245893108
2,high_entitlement,33210,8,9171,group2,Would it be at all possible to help me out with the rent?,W,Male,43,high,interaction,EM,5.622641509,1.913780141,4.830188679,1.553356775,4.79245283,1.633289396,5.20754717,1.245893108
2,low_entitlement,22426,6,56292,group1,Can you help me out with the rent?,M,Female,31,low,interaction,M,3.0625,2.025436648,5.9375,1.060033119,5.604166667,1.425297033,4.708333333,1.270924163
2,low_entitlement,27661,6,95061,group1,"I'm short on cash this month, and rent is coming up.",IS,Female,33,low,interaction,IS,3.0625,2.025436648,5.9375,1.060033119,5.604166667,1.425297033,4.708333333,1.270924163
2,low_entitlement,2360,8,11674,group1,"I'm short on cash this month, and rent is coming up.",IS,Male,41,low,interaction,IS,3.0625,2.025436648,5.9375,1.060033119,5.604166667,1.425297033,4.708333333,1.270924163
2,low_entitlement,299864,11,7044,group1,Can you help me out with the rent?,M,Female,23,low,interaction,M,3.0625,2.025436648,5.9375,1.060033119,5.604166667,1.425297033,4.708333333,1.270924163
2,low_entitlement,12101,6,2471,group1,Would it be at all possible to help me out with the rent?,W,Female,59,low,interaction,EM,3.0625,2.025436648,5.9375,1.060033119,5.604166667,1.425297033,4.708333333,1.270924163
2,low_entitlement,7328,6,24995,group1,Would it be at all possible to help me out with the rent?,W,Male,30,low,interaction,EM,3.0625,2.025436648,5.9375,1.060033119,5.604166667,1.425297033,4.708333333,1.270924163
2,low_entitlement,27373,10,58332,group1,Can you help me out with the rent?,M,Male,65,low,interaction,M,3.0625,2.025436648,5.9375,1.060033119,5.604166667,1.425297033,4.708333333,1.270924163
2,low_entitlement,8249,9,46162,group1,Would it be at all possible to help me out with the rent?,W,Male,35,low,interaction,EM,3.0625,2.025436648,5.9375,1.060033119,5.604166667,1.425297033,4.708333333,1.270924163
2,low_entitlement,11187,10,24041,group1,Can you help me out with the rent?,M,Male,39,low,interaction,M,3.0625,2.025436648,5.9375,1.060033119,5.604166667,1.425297033,4.708333333,1.270924163
2,low_entitlement,117486,5,66682,group1,Would it be at all possible to help me out with the rent?,W,Female,29,low,interaction,EM,3.0625,2.025436648,5.9375,1.060033119,5.604166667,1.425297033,4.708333333,1.270924163
2,low_entitlement,1844,6,71391,group1,Would it be at all possible to help me out with the rent?,W,Male,29,low,interaction,EM,3.0625,2.025436648,5.9375,1.060033119,5.604166667,1.425297033,4.708333333,1.270924163
2,low_entitlement,3510,6,33903,group1,Can you help me out with the rent?,M,Female,32,low,interaction,M,3.0625,2.025436648,5.9375,1.060033119,5.604166667,1.425297033,4.708333333,1.270924163
2,low_entitlement,4086,6,89974,group1,I need you to cover my rent this month.,D,Female,25,low,interaction,D,3.0625,2.025436648,5.9375,1.060033119,5.604166667,1.425297033,4.708333333,1.270924163
2,low_entitlement,6322,10,90211,group1,Would it be at all possible to help me out with the rent?,W,Female,27,low,interaction,EM,3.0625,2.025436648,5.9375,1.060033119,5.604166667,1.425297033,4.708333333,1.270924163
2,low_entitlement,3746,3,34496,group1,Would it be at all possible to help me out with the rent?,W,Male,27,low,interaction,EM,3.0625,2.025436648,5.9375,1.060033119,5.604166667,1.425297033,4.708333333,1.270924163
2,low_entitlement,28026,6,80148,group1,"I'm short on cash this month, and rent is coming up.",IS,Female,33,low,interaction,IS,3.0625,2.025436648,5.9375,1.060033119,5.604166667,1.425297033,4.708333333,1.270924163
2,low_entitlement,18983,10,16711,group1,"I'm short on cash this month, and rent is coming up.",IS,Female,42,low,interaction,IS,3.0625,2.025436648,5.9375,1.060033119,5.604166667,1.425297033,4.708333333,1.270924163
2,low_entitlement,17390,10,45852,group1,I need you to cover my rent this month.,D,Male,27,low,interaction,D,3.0625,2.025436648,5.9375,1.060033119,5.604166667,1.425297033,4.708333333,1.270924163
2,low_entitlement,13025,4,57860,group1,Would it be at all possible to help me out with the rent?,W,Male,35,low,interaction,EM,3.0625,2.025436648,5.9375,1.060033119,5.604166667,1.425297033,4.708333333,1.270924163
2,low_entitlement,35089,6,55304,group1,Can you help me out with the rent?,M,Female,43,low,interaction,M,3.0625,2.025436648,5.9375,1.060033119,5.604166667,1.425297033,4.708333333,1.270924163
2,low_entitlement,12173,11,24718,group1,Would it be at all possible to help me out with the rent?,W,Female,40,low,interaction,EM,3.0625,2.025436648,5.9375,1.060033119,5.604166667,1.425297033,4.708333333,1.270924163
2,low_entitlement,5076,9,67700,group1,"I'm short on cash this month, and rent is coming up.",IS,Male,29,low,interaction,IS,3.0625,2.025436648,5.9375,1.060033119,5.604166667,1.425297033,4.708333333,1.270924163
2,low_entitlement,14337,7,32379,group1,Would it be at all possible to help me out with the rent?,W,Male,23,low,interaction,EM,3.0625,2.025436648,5.9375,1.060033119,5.604166667,1.425297033,4.708333333,1.270924163
2,low_entitlement,17666,4,42017,group1,Would it be at all possible to help me out with the rent?,W,Female,37,low,interaction,EM,3.0625,2.025436648,5.9375,1.060033119,5.604166667,1.425297033,4.708333333,1.270924163
2,low_entitlement,5655,11,81283,group1,Can you help me out with the rent?,M,Female,30,low,interaction,M,3.0625,2.025436648,5.9375,1.060033119,5.604166667,1.425297033,4.708333333,1.270924163
2,low_entitlement,30706,2,61519,group1,Would it be at all possible to help me out with the rent?,W,Male,37,low,interaction,EM,3.0625,2.025436648,5.9375,1.060033119,5.604166667,1.425297033,4.708333333,1.270924163
2,low_entitlement,2252,9,64887,group1,Can you help me out with the rent?,M,Female,30,low,interaction,M,3.0625,2.025436648,5.9375,1.060033119,5.604166667,1.425297033,4.708333333,1.270924163
2,low_entitlement,2203,11,8216,group1,Would it be at all possible to help me out with the rent?,W,Male,29,low,interaction,EM,3.0625,2.025436648,5.9375,1.060033119,5.604166667,1.425297033,4.708333333,1.270924163
2,low_entitlement,20569,2,94652,group1,Would it be at all possible to help me out with the rent?,W,Female,58,low,interaction,EM,3.0625,2.025436648,5.9375,1.060033119,5.604166667,1.425297033,4.708333333,1.270924163
2,low_entitlement,20378,8,87155,group1,Would it be at all possible to help me out with the rent?,W,Male,26,low,interaction,EM,3.0625,2.025436648,5.9375,1.060033119,5.604166667,1.425297033,4.708333333,1.270924163
2,low_entitlement,11865,8,42306,group1,Would it be at all possible to help me out with the rent?,W,Female,49,low,interaction,EM,3.0625,2.025436648,5.9375,1.060033119,5.604166667,1.425297033,4.708333333,1.270924163
2,low_entitlement,4813,11,87326,group1,Would it be at all possible to help me out with the rent?,W,Female,22,low,interaction,EM,3.0625,2.025436648,5.9375,1.060033119,5.604166667,1.425297033,4.708333333,1.270924163
2,low_entitlement,38740,11,20794,group1,Would it be at all possible to help me out with the rent?,W,Female,33,low,interaction,EM,3.0625,2.025436648,5.9375,1.060033119,5.604166667,1.425297033,4.708333333,1.270924163
2,low_entitlement,1845,10,97756,group1,Would it be at all possible to help me out with the rent?,W,Male,31,low,interaction,EM,3.0625,2.025436648,5.9375,1.060033119,5.604166667,1.425297033,4.708333333,1.270924163
3,high_entitlement,20283,10,80148,group1,Can you get me the copies of the expense and quarterly reports?,M,Female,33,high,relationship,M,5.270833333,1.620868999,3.979166667,1.850699504,3.787234043,2.254812922,4.083333333,1.350072233
3,high_entitlement,16104,6,57860,group1,I was wondering if I could get copies of the expense and quarterly reports?,W,Male,35,high,relationship,EM,5.270833333,1.620868999,3.979166667,1.850699504,3.787234043,2.254812922,4.083333333,1.350072233
3,high_entitlement,22829,10,61519,group1,I was wondering if I could get copies of the expense and quarterly reports?,W,Male,37,high,relationship,EM,5.270833333,1.620868999,3.979166667,1.850699504,3.787234043,2.254812922,4.083333333,1.350072233
3,high_entitlement,12267,9,2471,group1,Can you get me the copies of the expense and quarterly reports?,M,Female,59,high,relationship,M,5.270833333,1.620868999,3.979166667,1.850699504,3.787234043,2.254812922,4.083333333,1.350072233
3,high_entitlement,1261,4,97756,group1,I need you to compile these reports.,D,Male,31,high,relationship,D,5.270833333,1.620868999,3.979166667,1.850699504,3.787234043,2.254812922,4.083333333,1.350072233
3,high_entitlement,18160,5,42017,group1,Can you get me the copies of the expense and quarterly reports?,M,Female,37,high,relationship,M,5.270833333,1.620868999,3.979166667,1.850699504,3.787234043,2.254812922,4.083333333,1.350072233
3,high_entitlement,2557,10,64887,group1,I'm not sure I have time to compile these reports.,IS,Female,30,high,relationship,IS,5.270833333,1.620868999,3.979166667,1.850699504,3.787234043,2.254812922,4.083333333,1.350072233
3,high_entitlement,1259,10,11674,group1,I need you to compile these reports.,D,Male,41,high,relationship,D,5.270833333,1.620868999,3.979166667,1.850699504,3.787234043,2.254812922,4.083333333,1.350072233
3,high_entitlement,3196,7,71391,group1,I was wondering if I could get copies of the expense and quarterly reports?,W,Male,29,high,relationship,EM,5.270833333,1.620868999,3.979166667,1.850699504,3.787234043,2.254812922,4.083333333,1.350072233
3,high_entitlement,27470,9,58332,group1,Can you get me the copies of the expense and quarterly reports?,M,Male,65,high,relationship,M,5.270833333,1.620868999,3.979166667,1.850699504,3.787234043,2.254812922,4.083333333,1.350072233
3,high_entitlement,28548,8,32379,group1,I need you to compile these reports.,D,Male,23,high,relationship,D,5.270833333,1.620868999,3.979166667,1.850699504,3.787234043,2.254812922,4.083333333,1.350072233
3,high_entitlement,16845,3,45852,group1,I need you to compile these reports.,D,Male,27,high,relationship,D,5.270833333,1.620868999,3.979166667,1.850699504,3.787234043,2.254812922,4.083333333,1.350072233
3,high_entitlement,8308,4,24995,group1,Can you get me the copies of the expense and quarterly reports?,M,Male,30,high,relationship,M,5.270833333,1.620868999,3.979166667,1.850699504,3.787234043,2.254812922,4.083333333,1.350072233
3,high_entitlement,8609,5,87326,group1,I was wondering if I could get copies of the expense and quarterly reports?,W,Female,22,high,relationship,EM,5.270833333,1.620868999,3.979166667,1.850699504,3.787234043,2.254812922,4.083333333,1.350072233
3,high_entitlement,11863,2,89974,group1,I need you to compile these reports.,D,Female,25,high,relationship,D,5.270833333,1.620868999,3.979166667,1.850699504,3.787234043,2.254812922,4.083333333,1.350072233
3,high_entitlement,16348,6,66682,group1,Can you get me the copies of the expense and quarterly reports?,M,Female,29,high,relationship,M,5.270833333,1.620868999,3.979166667,1.850699504,3.787234043,2.254812922,4.083333333,1.350072233
3,high_entitlement,9191,11,46162,group1,Can you get me the copies of the expense and quarterly reports?,M,Male,35,high,relationship,M,5.270833333,1.620868999,3.979166667,1.850699504,3.787234043,2.254812922,4.083333333,1.350072233
3,high_entitlement,36232,2,42306,group1,Can you get me the copies of the expense and quarterly reports?,M,Female,49,high,relationship,M,5.270833333,1.620868999,3.979166667,1.850699504,3.787234043,2.254812922,4.083333333,1.350072233
3,high_entitlement,24428,4,56292,group1,Can you get me the copies of the expense and quarterly reports?,M,Female,31,high,relationship,M,5.270833333,1.620868999,3.979166667,1.850699504,3.787234043,2.254812922,4.083333333,1.350072233
3,high_entitlement,12557,6,94652,group1,Can you get me the copies of the expense and quarterly reports?,M,Female,58,high,relationship,M,5.270833333,1.620868999,3.979166667,1.850699504,3.787234043,2.254812922,4.083333333,1.350072233
3,high_entitlement,6012,5,81283,group1,Can you get me the copies of the expense and quarterly reports?,M,Female,30,high,relationship,M,5.270833333,1.620868999,3.979166667,1.850699504,3.787234043,2.254812922,4.083333333,1.350072233
3,high_entitlement,34871,5,55304,group1,Can you get me the copies of the expense and quarterly reports?,M,Female,43,high,relationship,M,5.270833333,1.620868999,3.979166667,1.850699504,3.787234043,2.254812922,4.083333333,1.350072233
3,high_entitlement,19309,5,16711,group1,I was wondering if I could get copies of the expense and quarterly reports?,W,Female,42,high,relationship,EM,5.270833333,1.620868999,3.979166667,1.850699504,3.787234043,2.254812922,4.083333333,1.350072233
3,high_entitlement,13931,3,24718,group1,I need you to compile these reports.,D,Female,40,high,relationship,D,5.270833333,1.620868999,3.979166667,1.850699504,3.787234043,2.254812922,4.083333333,1.350072233
3,high_entitlement,32270,4,7044,group1,Can you get me the copies of the expense and quarterly reports?,M,Female,23,high,relationship,M,5.270833333,1.620868999,3.979166667,1.850699504,3.787234043,2.254812922,4.083333333,1.350072233
3,high_entitlement,2709,8,33903,group1,Can you get me the copies of the expense and quarterly reports?,M,Female,32,high,relationship,M,5.270833333,1.620868999,3.979166667,1.850699504,3.787234043,2.254812922,4.083333333,1.350072233
3,high_entitlement,6109,2,20794,group1,Can you get me the copies of the expense and quarterly reports?,M,Female,33,high,relationship,M,5.270833333,1.620868999,3.979166667,1.850699504,3.787234043,2.254812922,4.083333333,1.350072233
3,high_entitlement,6278,10,34496,group1,Can you get me the copies of the expense and quarterly reports?,M,Male,27,high,relationship,M,5.270833333,1.620868999,3.979166667,1.850699504,3.787234043,2.254812922,4.083333333,1.350072233
3,high_entitlement,12459,6,24041,group1,I was wondering if I could get copies of the expense and quarterly reports?,W,Male,39,high,relationship,EM,5.270833333,1.620868999,3.979166667,1.850699504,3.787234043,2.254812922,4.083333333,1.350072233
3,high_entitlement,27869,3,90211,group1,I'm not sure I have time to compile these reports.,IS,Female,27,high,relationship,IS,5.270833333,1.620868999,3.979166667,1.850699504,3.787234043,2.254812922,4.083333333,1.350072233
3,high_entitlement,2354,9,8216,group1,Can you get me the copies of the expense and quarterly reports?,M,Male,29,high,relationship,M,5.270833333,1.620868999,3.979166667,1.850699504,3.787234043,2.254812922,4.083333333,1.350072233
3,high_entitlement,19603,3,87155,group1,Can you get me the copies of the expense and quarterly reports?,M,Male,26,high,relationship,M,5.270833333,1.620868999,3.979166667,1.850699504,3.787234043,2.254812922,4.083333333,1.350072233
3,high_entitlement,2089,11,67700,group1,I'm not sure I have time to compile these reports.,IS,Male,29,high,relationship,IS,5.270833333,1.620868999,3.979166667,1.850699504,3.787234043,2.254812922,4.083333333,1.350072233
3,high_entitlement,118554,7,95061,group1,Can you get me the copies of the expense and quarterly reports?,M,Female,33,high,relationship,M,5.270833333,1.620868999,3.979166667,1.850699504,3.787234043,2.254812922,4.083333333,1.350072233
3,low_entitlement,11257,4,22282,group2,Can you get me the copies of the expense and quarterly reports?,M,Male,43,low,relationship,M,4.826923077,1.677079088,4.037735849,1.663664446,6.094339623,1.348277404,3.113207547,1.660171184
3,low_entitlement,13118,2,74166,group2,I'm not sure I have time to compile these reports.,IS,Male,25,low,relationship,IS,4.826923077,1.677079088,4.037735849,1.663664446,6.094339623,1.348277404,3.113207547,1.660171184
3,low_entitlement,19694,11,56171,group2,I was wondering if I could get copies of the expense and quarterly reports?,W,Female,48,low,relationship,EM,4.826923077,1.677079088,4.037735849,1.663664446,6.094339623,1.348277404,3.113207547,1.660171184
3,low_entitlement,4547,5,40239,group2,I was wondering if I could get copies of the expense and quarterly reports?,W,Female,56,low,relationship,EM,4.826923077,1.677079088,4.037735849,1.663664446,6.094339623,1.348277404,3.113207547,1.660171184
3,low_entitlement,20390,2,42146,group2,Can you get me the copies of the expense and quarterly reports?,M,Female,34,low,relationship,M,4.826923077,1.677079088,4.037735849,1.663664446,6.094339623,1.348277404,3.113207547,1.660171184
3,low_entitlement,16784,4,65743,group2,I need you to compile these reports.,D,Male,26,low,relationship,D,4.826923077,1.677079088,4.037735849,1.663664446,6.094339623,1.348277404,3.113207547,1.660171184
3,low_entitlement,31765,7,9171,group2,Can you get me the copies of the expense and quarterly reports?,M,Male,43,low,relationship,M,4.826923077,1.677079088,4.037735849,1.663664446,6.094339623,1.348277404,3.113207547,1.660171184
3,low_entitlement,16589,5,25273,group2,I was wondering if I could get copies of the expense and quarterly reports?,W,Male,48,low,relationship,EM,4.826923077,1.677079088,4.037735849,1.663664446,6.094339623,1.348277404,3.113207547,1.660171184
3,low_entitlement,34432,3,3324,group2,I was wondering if I could get copies of the expense and quarterly reports?,W,Male,41,low,relationship,EM,4.826923077,1.677079088,4.037735849,1.663664446,6.094339623,1.348277404,3.113207547,1.660171184
3,low_entitlement,4435,9,87512,group2,I was wondering if I could get copies of the expense and quarterly reports?,W,Male,38,low,relationship,EM,4.826923077,1.677079088,4.037735849,1.663664446,6.094339623,1.348277404,3.113207547,1.660171184
3,low_entitlement,14999,6,19424,group2,I was wondering if I could get copies of the expense and quarterly reports?,W,Female,52,low,relationship,EM,4.826923077,1.677079088,4.037735849,1.663664446,6.094339623,1.348277404,3.113207547,1.660171184
3,low_entitlement,15542,8,55991,group2,I was wondering if I could get copies of the expense and quarterly reports?,W,Female,27,low,relationship,EM,4.826923077,1.677079088,4.037735849,1.663664446,6.094339623,1.348277404,3.113207547,1.660171184
3,low_entitlement,24857,8,36333,group2,Can you get me the copies of the expense and quarterly reports?,M,Female,42,low,relationship,M,4.826923077,1.677079088,4.037735849,1.663664446,6.094339623,1.348277404,3.113207547,1.660171184
3,low_entitlement,19804,6,79859,group2,I was wondering if I could get copies of the expense and quarterly reports?,W,Female,27,low,relationship,EM,4.826923077,1.677079088,4.037735849,1.663664446,6.094339623,1.348277404,3.113207547,1.660171184
3,low_entitlement,3722,7,45177,group2,I was wondering if I could get copies of the expense and quarterly reports?,W,Male,29,low,relationship,EM,4.826923077,1.677079088,4.037735849,1.663664446,6.094339623,1.348277404,3.113207547,1.660171184
3,low_entitlement,12462,11,87775,group2,Can you get me the copies of the expense and quarterly reports?,M,Male,22,low,relationship,M,4.826923077,1.677079088,4.037735849,1.663664446,6.094339623,1.348277404,3.113207547,1.660171184
3,low_entitlement,3325,4,1977,group2,I was wondering if I could get copies of the expense and quarterly reports?,W,Male,33,low,relationship,EM,4.826923077,1.677079088,4.037735849,1.663664446,6.094339623,1.348277404,3.113207547,1.660171184
3,low_entitlement,27767,4,90609,group2,Can you get me the copies of the expense and quarterly reports?,M,Female,21,low,relationship,M,4.826923077,1.677079088,4.037735849,1.663664446,6.094339623,1.348277404,3.113207547,1.660171184
3,low_entitlement,31948,4,16670,group2,Can you get me the copies of the expense and quarterly reports?,M,Male,30,low,relationship,M,4.826923077,1.677079088,4.037735849,1.663664446,6.094339623,1.348277404,3.113207547,1.660171184
3,low_entitlement,74521,7,8324,group2,I need you to compile these reports.,D,Female,30,low,relationship,D,4.826923077,1.677079088,4.037735849,1.663664446,6.094339623,1.348277404,3.113207547,1.660171184
3,low_entitlement,31600,9,70928,group2,Can you get me the copies of the expense and quarterly reports?,M,Male,30,low,relationship,M,4.826923077,1.677079088,4.037735849,1.663664446,6.094339623,1.348277404,3.113207547,1.660171184
3,low_entitlement,26340,6,50863,group2,I was wondering if I could get copies of the expense and quarterly reports?,W,Male,23,low,relationship,EM,4.826923077,1.677079088,4.037735849,1.663664446,6.094339623,1.348277404,3.113207547,1.660171184
3,low_entitlement,2465,4,74278,group2,I'm not sure I have time to compile these reports.,IS,Male,25,low,relationship,IS,4.826923077,1.677079088,4.037735849,1.663664446,6.094339623,1.348277404,3.113207547,1.660171184
3,low_entitlement,2667,3,83161,group2,I'm not sure I have time to compile these reports.,IS,Male,30,low,relationship,IS,4.826923077,1.677079088,4.037735849,1.663664446,6.094339623,1.348277404,3.113207547,1.660171184
3,low_entitlement,8182,11,13778,group2,I was wondering if I could get copies of the expense and quarterly reports?,W,Male,37,low,relationship,EM,4.826923077,1.677079088,4.037735849,1.663664446,6.094339623,1.348277404,3.113207547,1.660171184
3,low_entitlement,27460,2,5514,group2,I was wondering if I could get copies of the expense and quarterly reports?,W,Female,47,low,relationship,EM,4.826923077,1.677079088,4.037735849,1.663664446,6.094339623,1.348277404,3.113207547,1.660171184
3,low_entitlement,61427,5,85567,group2,Can you get me the copies of the expense and quarterly reports?,M,Male,33,low,relationship,M,4.826923077,1.677079088,4.037735849,1.663664446,6.094339623,1.348277404,3.113207547,1.660171184
3,low_entitlement,3357,5,44710,group2,I was wondering if I could get copies of the expense and quarterly reports?,W,Male,24,low,relationship,EM,4.826923077,1.677079088,4.037735849,1.663664446,6.094339623,1.348277404,3.113207547,1.660171184
3,low_entitlement,3767,8,74734,group2,I was wondering if I could get copies of the expense and quarterly reports?,W,Female,31,low,relationship,EM,4.826923077,1.677079088,4.037735849,1.663664446,6.094339623,1.348277404,3.113207547,1.660171184
3,low_entitlement,3234,10,91548,group2,Can you get me the copies of the expense and quarterly reports?,M,Male,26,low,relationship,M,4.826923077,1.677079088,4.037735849,1.663664446,6.094339623,1.348277404,3.113207547,1.660171184
3,low_entitlement,13808,7,71861,group2,I was wondering if I could get copies of the expense and quarterly reports?,W,Male,30,low,relationship,EM,4.826923077,1.677079088,4.037735849,1.663664446,6.094339623,1.348277404,3.113207547,1.660171184
3,low_entitlement,45348,10,48563,group2,Can you get me the copies of the expense and quarterly reports?,M,Male,25,low,relationship,M,4.826923077,1.677079088,4.037735849,1.663664446,6.094339623,1.348277404,3.113207547,1.660171184
3,low_entitlement,7975,11,45610,group2,I was wondering if I could get copies of the expense and quarterly reports?,W,Female,21,low,relationship,EM,4.826923077,1.677079088,4.037735849,1.663664446,6.094339623,1.348277404,3.113207547,1.660171184
3,low_entitlement,17734,3,81470,group2,Can you get me the copies of the expense and quarterly reports?,M,Male,36,low,relationship,M,4.826923077,1.677079088,4.037735849,1.663664446,6.094339623,1.348277404,3.113207547,1.660171184
3,low_entitlement,15243,5,86881,group2,I was wondering if I could get copies of the expense and quarterly reports?,W,Female,20,low,relationship,EM,4.826923077,1.677079088,4.037735849,1.663664446,6.094339623,1.348277404,3.113207547,1.660171184
3,low_entitlement,14409,10,43477,group2,Can you get me the copies of the expense and quarterly reports?,M,Male,26,low,relationship,M,4.826923077,1.677079088,4.037735849,1.663664446,6.094339623,1.348277404,3.113207547,1.660171184
3,low_entitlement,5039,7,75614,group2,I was wondering if I could get copies of the expense and quarterly reports?,W,Male,47,low,relationship,EM,4.826923077,1.677079088,4.037735849,1.663664446,6.094339623,1.348277404,3.113207547,1.660171184
3,low_entitlement,3563,6,1593,group2,Can you get me the copies of the expense and quarterly reports?,M,Male,25,low,relationship,M,4.826923077,1.677079088,4.037735849,1.663664446,6.094339623,1.348277404,3.113207547,1.660171184
3,low_entitlement,1785,7,73328,group2,I need you to compile these reports.,D,Male,25,low,relationship,D,4.826923077,1.677079088,4.037735849,1.663664446,6.094339623,1.348277404,3.113207547,1.660171184
3,low_entitlement,14704,3,98986,group2,Can you get me the copies of the expense and quarterly reports?,M,Female,34,low,relationship,M,4.826923077,1.677079088,4.037735849,1.663664446,6.094339623,1.348277404,3.113207547,1.660171184
3,low_entitlement,26173,7,97151,group2,I was wondering if I could get copies of the expense and quarterly reports?,W,Male,27,low,relationship,EM,4.826923077,1.677079088,4.037735849,1.663664446,6.094339623,1.348277404,3.113207547,1.660171184
3,low_entitlement,101234,2,76012,group2,Can you get me the copies of the expense and quarterly reports?,M,Male,27,low,relationship,M,4.826923077,1.677079088,4.037735849,1.663664446,6.094339623,1.348277404,3.113207547,1.660171184
3,low_entitlement,26225,2,7349,group2,I was wondering if I could get copies of the expense and quarterly reports?,W,Male,33,low,relationship,EM,4.826923077,1.677079088,4.037735849,1.663664446,6.094339623,1.348277404,3.113207547,1.660171184
3,low_entitlement,34323,11,28114,group2,I'm not sure I have time to compile these reports.,IS,Female,40,low,relationship,IS,4.826923077,1.677079088,4.037735849,1.663664446,6.094339623,1.348277404,3.113207547,1.660171184
3,low_entitlement,185051,2,28542,group2,I need you to compile these reports.,D,Male,25,low,relationship,D,4.826923077,1.677079088,4.037735849,1.663664446,6.094339623,1.348277404,3.113207547,1.660171184
3,low_entitlement,7584,8,94407,group2,Can you get me the copies of the expense and quarterly reports?,M,Male,27,low,relationship,M,4.826923077,1.677079088,4.037735849,1.663664446,6.094339623,1.348277404,3.113207547,1.660171184
3,low_entitlement,20618,11,90079,group2,I was wondering if I could get copies of the expense and quarterly reports?,W,Male,39,low,relationship,EM,4.826923077,1.677079088,4.037735849,1.663664446,6.094339623,1.348277404,3.113207547,1.660171184
4,high_entitlement,8403,7,22282,group2,Can you pick me up at the airport?,M,Male,43,high,relationship,M,5.846153846,1.55152822,3.807692308,1.782688667,4.725490196,1.470760774,6.442307692,1.161700267
4,high_entitlement,43710,2,3324,group2,Can you pick me up at the airport?,M,Male,41,high,relationship,M,5.846153846,1.55152822,3.807692308,1.782688667,4.725490196,1.470760774,6.442307692,1.161700267
4,high_entitlement,20369,8,8324,group2,Is there any way you'd be able to pick me up at the airport?,W,Female,30,high,relationship,EM,5.846153846,1.55152822,3.807692308,1.782688667,4.725490196,1.470760774,6.442307692,1.161700267
4,high_entitlement,13772,3,65743,group2,Can you pick me up at the airport?,M,Male,26,high,relationship,M,5.846153846,1.55152822,3.807692308,1.782688667,4.725490196,1.470760774,6.442307692,1.161700267
4,high_entitlement,8056,7,25273,group2,Can you pick me up at the airport?,M,Male,48,high,relationship,M,5.846153846,1.55152822,3.807692308,1.782688667,4.725490196,1.470760774,6.442307692,1.161700267
4,high_entitlement,57330,6,76012,group2,I'm stuck at the airport.,IS,Male,27,high,relationship,IS,5.846153846,1.55152822,3.807692308,1.782688667,4.725490196,1.470760774,6.442307692,1.161700267
4,high_entitlement,10443,8,71861,group2,Can you pick me up at the airport?,M,Male,30,high,relationship,M,5.846153846,1.55152822,3.807692308,1.782688667,4.725490196,1.470760774,6.442307692,1.161700267
4,high_entitlement,8802,2,45177,group2,Is there any way you'd be able to pick me up at the airport?,W,Male,29,high,relationship,EM,5.846153846,1.55152822,3.807692308,1.782688667,4.725490196,1.470760774,6.442307692,1.161700267
4,high_entitlement,8407,8,44710,group2,I'm stuck at the airport.,IS,Male,24,high,relationship,IS,5.846153846,1.55152822,3.807692308,1.782688667,4.725490196,1.470760774,6.442307692,1.161700267
4,high_entitlement,19555,11,40239,group2,I need you to give me a ride home.,D,Female,56,high,relationship,D,5.846153846,1.55152822,3.807692308,1.782688667,4.725490196,1.470760774,6.442307692,1.161700267
4,high_entitlement,-45390,5,9171,group2,Is there any way you'd be able to pick me up at the airport?,W,Male,43,high,relationship,EM,5.846153846,1.55152822,3.807692308,1.782688667,4.725490196,1.470760774,6.442307692,1.161700267
4,high_entitlement,16052,8,42146,group2,I need you to give me a ride home.,D,Female,34,high,relationship,D,5.846153846,1.55152822,3.807692308,1.782688667,4.725490196,1.470760774,6.442307692,1.161700267
4,high_entitlement,6884,7,98986,group2,Can you pick me up at the airport?,M,Female,34,high,relationship,M,5.846153846,1.55152822,3.807692308,1.782688667,4.725490196,1.470760774,6.442307692,1.161700267
4,high_entitlement,3975,8,1977,group2,I'm stuck at the airport.,IS,Male,33,high,relationship,IS,5.846153846,1.55152822,3.807692308,1.782688667,4.725490196,1.470760774,6.442307692,1.161700267
4,high_entitlement,93255,7,87512,group2,Is there any way you'd be able to pick me up at the airport?,W,Male,38,high,relationship,EM,5.846153846,1.55152822,3.807692308,1.782688667,4.725490196,1.470760774,6.442307692,1.161700267
4,high_entitlement,8307,4,28542,group2,I need you to give me a ride home.,D,Male,25,high,relationship,D,5.846153846,1.55152822,3.807692308,1.782688667,4.725490196,1.470760774,6.442307692,1.161700267
4,high_entitlement,12780,4,87775,group2,Can you pick me up at the airport?,M,Male,22,high,relationship,M,5.846153846,1.55152822,3.807692308,1.782688667,4.725490196,1.470760774,6.442307692,1.161700267
4,high_entitlement,8683,7,90609,group2,Is there any way you'd be able to pick me up at the airport?,W,Female,21,high,relationship,EM,5.846153846,1.55152822,3.807692308,1.782688667,4.725490196,1.470760774,6.442307692,1.161700267
4,high_entitlement,67088,4,48563,group2,Is there any way you'd be able to pick me up at the airport?,W,Male,25,high,relationship,EM,5.846153846,1.55152822,3.807692308,1.782688667,4.725490196,1.470760774,6.442307692,1.161700267
4,high_entitlement,3627,5,13778,group2,Is there any way you'd be able to pick me up at the airport?,W,Male,37,high,relationship,EM,5.846153846,1.55152822,3.807692308,1.782688667,4.725490196,1.470760774,6.442307692,1.161700267
4,high_entitlement,10115,2,74734,group2,Can you pick me up at the airport?,M,Female,31,high,relationship,M,5.846153846,1.55152822,3.807692308,1.782688667,4.725490196,1.470760774,6.442307692,1.161700267
4,high_entitlement,17069,7,56171,group2,Can you pick me up at the airport?,M,Female,48,high,relationship,M,5.846153846,1.55152822,3.807692308,1.782688667,4.725490196,1.470760774,6.442307692,1.161700267
4,high_entitlement,18619,2,36333,group2,Can you pick me up at the airport?,M,Female,42,high,relationship,M,5.846153846,1.55152822,3.807692308,1.782688667,4.725490196,1.470760774,6.442307692,1.161700267
4,high_entitlement,21268,6,16670,group2,Can you pick me up at the airport?,M,Male,30,high,relationship,M,5.846153846,1.55152822,3.807692308,1.782688667,4.725490196,1.470760774,6.442307692,1.161700267
4,high_entitlement,12539,7,94407,group2,Can you pick me up at the airport?,M,Male,27,high,relationship,M,5.846153846,1.55152822,3.807692308,1.782688667,4.725490196,1.470760774,6.442307692,1.161700267
4,high_entitlement,33015,2,91548,group2,I'm stuck at the airport.,IS,Male,26,high,relationship,IS,5.846153846,1.55152822,3.807692308,1.782688667,4.725490196,1.470760774,6.442307692,1.161700267
4,high_entitlement,6908,3,45610,group2,Is there any way you'd be able to pick me up at the airport?,W,Female,21,high,relationship,EM,5.846153846,1.55152822,3.807692308,1.782688667,4.725490196,1.470760774,6.442307692,1.161700267
4,high_entitlement,2290,11,1593,group2,I need you to give me a ride home.,D,Male,25,high,relationship,D,5.846153846,1.55152822,3.807692308,1.782688667,4.725490196,1.470760774,6.442307692,1.161700267
4,high_entitlement,19569,4,85567,group2,Is there any way you'd be able to pick me up at the airport?,W,Male,33,high,relationship,EM,5.846153846,1.55152822,3.807692308,1.782688667,4.725490196,1.470760774,6.442307692,1.161700267
4,high_entitlement,19249,3,7349,group2,Can you pick me up at the airport?,M,Male,33,high,relationship,M,5.846153846,1.55152822,3.807692308,1.782688667,4.725490196,1.470760774,6.442307692,1.161700267
4,high_entitlement,15797,9,50863,group2,Is there any way you'd be able to pick me up at the airport?,W,Male,23,high,relationship,EM,5.846153846,1.55152822,3.807692308,1.782688667,4.725490196,1.470760774,6.442307692,1.161700267
4,high_entitlement,18498,7,90079,group2,Is there any way you'd be able to pick me up at the airport?,W,Male,39,high,relationship,EM,5.846153846,1.55152822,3.807692308,1.782688667,4.725490196,1.470760774,6.442307692,1.161700267
4,high_entitlement,24561,4,70928,group2,Is there any way you'd be able to pick me up at the airport?,W,Male,30,high,relationship,EM,5.846153846,1.55152822,3.807692308,1.782688667,4.725490196,1.470760774,6.442307692,1.161700267
4,high_entitlement,3002,5,83161,group2,I need you to give me a ride home.,D,Male,30,high,relationship,D,5.846153846,1.55152822,3.807692308,1.782688667,4.725490196,1.470760774,6.442307692,1.161700267
4,high_entitlement,3244,11,75614,group2,I need you to give me a ride home.,D,Male,47,high,relationship,D,5.846153846,1.55152822,3.807692308,1.782688667,4.725490196,1.470760774,6.442307692,1.161700267
4,high_entitlement,16090,8,19424,group2,I need you to give me a ride home.,D,Female,52,high,relationship,D,5.846153846,1.55152822,3.807692308,1.782688667,4.725490196,1.470760774,6.442307692,1.161700267
4,high_entitlement,8424,9,28114,group2,Can you pick me up at the airport?,M,Female,40,high,relationship,M,5.846153846,1.55152822,3.807692308,1.782688667,4.725490196,1.470760774,6.442307692,1.161700267
4,high_entitlement,7641,8,74166,group2,Can you pick me up at the airport?,M,Male,25,high,relationship,M,5.846153846,1.55152822,3.807692308,1.782688667,4.725490196,1.470760774,6.442307692,1.161700267
4,high_entitlement,64040,2,79859,group2,Is there any way you'd be able to pick me up at the airport?,W,Female,27,high,relationship,EM,5.846153846,1.55152822,3.807692308,1.782688667,4.725490196,1.470760774,6.442307692,1.161700267
4,high_entitlement,13980,4,5514,group2,Is there any way you'd be able to pick me up at the airport?,W,Female,47,high,relationship,EM,5.846153846,1.55152822,3.807692308,1.782688667,4.725490196,1.470760774,6.442307692,1.161700267
4,high_entitlement,1944,3,73328,group2,Can you pick me up at the airport?,M,Male,25,high,relationship,M,5.846153846,1.55152822,3.807692308,1.782688667,4.725490196,1.470760774,6.442307692,1.161700267
4,high_entitlement,44271,8,86881,group2,I'm stuck at the airport.,IS,Female,20,high,relationship,IS,5.846153846,1.55152822,3.807692308,1.782688667,4.725490196,1.470760774,6.442307692,1.161700267
4,high_entitlement,20165,4,81470,group2,I need you to give me a ride home.,D,Male,36,high,relationship,D,5.846153846,1.55152822,3.807692308,1.782688667,4.725490196,1.470760774,6.442307692,1.161700267
4,high_entitlement,23636,5,97151,group2,Can you pick me up at the airport?,M,Male,27,high,relationship,M,5.846153846,1.55152822,3.807692308,1.782688667,4.725490196,1.470760774,6.442307692,1.161700267
4,high_entitlement,6356,6,74278,group2,I need you to give me a ride home.,D,Male,25,high,relationship,D,5.846153846,1.55152822,3.807692308,1.782688667,4.725490196,1.470760774,6.442307692,1.161700267
4,high_entitlement,16952,5,43477,group2,I need you to give me a ride home.,D,Male,26,high,relationship,D,5.846153846,1.55152822,3.807692308,1.782688667,4.725490196,1.470760774,6.442307692,1.161700267
4,high_entitlement,18726,9,55991,group2,Is there any way you'd be able to pick me up at the airport?,W,Female,27,high,relationship,EM,5.846153846,1.55152822,3.807692308,1.782688667,4.725490196,1.470760774,6.442307692,1.161700267
4,low_entitlement,9205,10,71391,group1,Is there any way you'd be able to pick me up at the airport?,W,Male,29,low,relationship,EM,3.375,1.897646919,5.466666667,1.235828761,5.145833333,1.515727244,3.895833333,1.372055196
4,low_entitlement,6490,8,8216,group1,Can you pick me up at the airport?,M,Male,29,low,relationship,M,3.375,1.897646919,5.466666667,1.235828761,5.145833333,1.515727244,3.895833333,1.372055196
4,low_entitlement,2286,4,64887,group1,I'm stuck at the airport.,IS,Female,30,low,relationship,IS,3.375,1.897646919,5.466666667,1.235828761,5.145833333,1.515727244,3.895833333,1.372055196
4,low_entitlement,12666,6,24718,group1,Is there any way you'd be able to pick me up at the airport?,W,Female,40,low,relationship,EM,3.375,1.897646919,5.466666667,1.235828761,5.145833333,1.515727244,3.895833333,1.372055196
4,low_entitlement,2218,10,20794,group1,Is there any way you'd be able to pick me up at the airport?,W,Female,33,low,relationship,EM,3.375,1.897646919,5.466666667,1.235828761,5.145833333,1.515727244,3.895833333,1.372055196
4,low_entitlement,15369,2,56292,group1,Is there any way you'd be able to pick me up at the airport?,W,Female,31,low,relationship,EM,3.375,1.897646919,5.466666667,1.235828761,5.145833333,1.515727244,3.895833333,1.372055196
4,low_entitlement,19104,8,16711,group1,Is there any way you'd be able to pick me up at the airport?,W,Female,42,low,relationship,EM,3.375,1.897646919,5.466666667,1.235828761,5.145833333,1.515727244,3.895833333,1.372055196
4,low_entitlement,18293,9,80148,group1,Is there any way you'd be able to pick me up at the airport?,W,Female,33,low,relationship,EM,3.375,1.897646919,5.466666667,1.235828761,5.145833333,1.515727244,3.895833333,1.372055196
4,low_entitlement,1584,11,11674,group1,I'm stuck at the airport.,IS,Male,41,low,relationship,IS,3.375,1.897646919,5.466666667,1.235828761,5.145833333,1.515727244,3.895833333,1.372055196
4,low_entitlement,24327,8,95061,group1,Is there any way you'd be able to pick me up at the airport?,W,Female,33,low,relationship,EM,3.375,1.897646919,5.466666667,1.235828761,5.145833333,1.515727244,3.895833333,1.372055196
4,low_entitlement,8362,5,94652,group1,Is there any way you'd be able to pick me up at the airport?,W,Female,58,low,relationship,EM,3.375,1.897646919,5.466666667,1.235828761,5.145833333,1.515727244,3.895833333,1.372055196
4,low_entitlement,18698,2,33903,group1,Can you pick me up at the airport?,M,Female,32,low,relationship,M,3.375,1.897646919,5.466666667,1.235828761,5.145833333,1.515727244,3.895833333,1.372055196
4,low_entitlement,12762,3,57860,group1,Is there any way you'd be able to pick me up at the airport?,W,Male,35,low,relationship,EM,3.375,1.897646919,5.466666667,1.235828761,5.145833333,1.515727244,3.895833333,1.372055196
4,low_entitlement,44983,5,90211,group1,I need you to give me a ride home.,D,Female,27,low,relationship,D,3.375,1.897646919,5.466666667,1.235828761,5.145833333,1.515727244,3.895833333,1.372055196
4,low_entitlement,10314,8,81283,group1,I'm stuck at the airport.,IS,Female,30,low,relationship,IS,3.375,1.897646919,5.466666667,1.235828761,5.145833333,1.515727244,3.895833333,1.372055196
4,low_entitlement,5966,11,89974,group1,Can you pick me up at the airport?,M,Female,25,low,relationship,M,3.375,1.897646919,5.466666667,1.235828761,5.145833333,1.515727244,3.895833333,1.372055196
4,low_entitlement,12754,11,87155,group1,Can you pick me up at the airport?,M,Male,26,low,relationship,M,3.375,1.897646919,5.466666667,1.235828761,5.145833333,1.515727244,3.895833333,1.372055196
4,low_entitlement,16471,6,42017,group1,Is there any way you'd be able to pick me up at the airport?,W,Female,37,low,relationship,EM,3.375,1.897646919,5.466666667,1.235828761,5.145833333,1.515727244,3.895833333,1.372055196
4,low_entitlement,20441,3,61519,group1,Is there any way you'd be able to pick me up at the airport?,W,Male,37,low,relationship,EM,3.375,1.897646919,5.466666667,1.235828761,5.145833333,1.515727244,3.895833333,1.372055196
4,low_entitlement,43041,4,55304,group1,Is there any way you'd be able to pick me up at the airport?,W,Female,43,low,relationship,EM,3.375,1.897646919,5.466666667,1.235828761,5.145833333,1.515727244,3.895833333,1.372055196
4,low_entitlement,8411,3,24995,group1,Is there any way you'd be able to pick me up at the airport?,W,Male,30,low,relationship,EM,3.375,1.897646919,5.466666667,1.235828761,5.145833333,1.515727244,3.895833333,1.372055196
4,low_entitlement,61157,9,66682,group1,I need you to give me a ride home.,D,Female,29,low,relationship,D,3.375,1.897646919,5.466666667,1.235828761,5.145833333,1.515727244,3.895833333,1.372055196
4,low_entitlement,4077,8,87326,group1,Is there any way you'd be able to pick me up at the airport?,W,Female,22,low,relationship,EM,3.375,1.897646919,5.466666667,1.235828761,5.145833333,1.515727244,3.895833333,1.372055196
4,low_entitlement,23107,5,58332,group1,Is there any way you'd be able to pick me up at the airport?,W,Male,65,low,relationship,EM,3.375,1.897646919,5.466666667,1.235828761,5.145833333,1.515727244,3.895833333,1.372055196
4,low_entitlement,23156,2,32379,group1,Can you pick me up at the airport?,M,Male,23,low,relationship,M,3.375,1.897646919,5.466666667,1.235828761,5.145833333,1.515727244,3.895833333,1.372055196
4,low_entitlement,3522,6,67700,group1,I need you to give me a ride home.,D,Male,29,low,relationship,D,3.375,1.897646919,5.466666667,1.235828761,5.145833333,1.515727244,3.895833333,1.372055196
4,low_entitlement,1453,6,97756,group1,Can you pick me up at the airport?,M,Male,31,low,relationship,M,3.375,1.897646919,5.466666667,1.235828761,5.145833333,1.515727244,3.895833333,1.372055196
4,low_entitlement,46040,10,42306,group1,Is there any way you'd be able to pick me up at the airport?,W,Female,49,low,relationship,EM,3.375,1.897646919,5.466666667,1.235828761,5.145833333,1.515727244,3.895833333,1.372055196
4,low_entitlement,6164,4,34496,group1,Is there any way you'd be able to pick me up at the airport?,W,Male,27,low,relationship,EM,3.375,1.897646919,5.466666667,1.235828761,5.145833333,1.515727244,3.895833333,1.372055196
4,low_entitlement,34366,2,45852,group1,I need you to give me a ride home.,D,Male,27,low,relationship,D,3.375,1.897646919,5.466666667,1.235828761,5.145833333,1.515727244,3.895833333,1.372055196
4,low_entitlement,441696,5,7044,group1,I need you to give me a ride home.,D,Female,23,low,relationship,D,3.375,1.897646919,5.466666667,1.235828761,5.145833333,1.515727244,3.895833333,1.372055196
4,low_entitlement,12602,7,2471,group1,Is there any way you'd be able to pick me up at the airport?,W,Female,59,low,relationship,EM,3.375,1.897646919,5.466666667,1.235828761,5.145833333,1.515727244,3.895833333,1.372055196
4,low_entitlement,7505,7,24041,group1,I'm stuck at the airport.,IS,Male,39,low,relationship,IS,3.375,1.897646919,5.466666667,1.235828761,5.145833333,1.515727244,3.895833333,1.372055196
4,low_entitlement,6149,8,46162,group1,Is there any way you'd be able to pick me up at the airport?,W,Male,35,low,relationship,EM,3.375,1.897646919,5.466666667,1.235828761,5.145833333,1.515727244,3.895833333,1.372055196
5,high_entitlement,14039,4,24718,group1,Send someone to help immediately.,D,Female,40,high,institution,D,5.666666667,2.107063433,3.085106383,2.272996368,5.208333333,1.687984236,2.520833333,1.989221844
5,high_entitlement,8558,6,87326,group1,Send someone to help immediately.,D,Female,22,high,institution,D,5.666666667,2.107063433,3.085106383,2.272996368,5.208333333,1.687984236,2.520833333,1.989221844
5,high_entitlement,39655,10,7044,group1,Send someone to help immediately.,D,Female,23,high,institution,D,5.666666667,2.107063433,3.085106383,2.272996368,5.208333333,1.687984236,2.520833333,1.989221844
5,high_entitlement,15737,3,20794,group1,Send someone to help immediately.,D,Female,33,high,institution,D,5.666666667,2.107063433,3.085106383,2.272996368,5.208333333,1.687984236,2.520833333,1.989221844
5,high_entitlement,11652,8,66682,group1,Would it be at all possible to send help?,W,Female,29,high,institution,EM,5.666666667,2.107063433,3.085106383,2.272996368,5.208333333,1.687984236,2.520833333,1.989221844
5,high_entitlement,18749,2,46162,group1,Send someone to help immediately.,D,Male,35,high,institution,D,5.666666667,2.107063433,3.085106383,2.272996368,5.208333333,1.687984236,2.520833333,1.989221844
5,high_entitlement,7731,11,24995,group1,Send someone to help immediately.,D,Male,30,high,institution,D,5.666666667,2.107063433,3.085106383,2.272996368,5.208333333,1.687984236,2.520833333,1.989221844
5,high_entitlement,20250,10,95061,group1,Send someone to help immediately.,D,Female,33,high,institution,D,5.666666667,2.107063433,3.085106383,2.272996368,5.208333333,1.687984236,2.520833333,1.989221844
5,high_entitlement,28727,2,67700,group1,Send someone to help immediately.,D,Male,29,high,institution,D,5.666666667,2.107063433,3.085106383,2.272996368,5.208333333,1.687984236,2.520833333,1.989221844
5,high_entitlement,1700,3,11674,group1,Would it be at all possible to send help?,W,Male,41,high,institution,EM,5.666666667,2.107063433,3.085106383,2.272996368,5.208333333,1.687984236,2.520833333,1.989221844
5,high_entitlement,22108,6,16711,group1,Send someone to help immediately.,D,Female,42,high,institution,D,5.666666667,2.107063433,3.085106383,2.272996368,5.208333333,1.687984236,2.520833333,1.989221844
5,high_entitlement,15127,2,24041,group1,There's an intruder.,IS,Male,39,high,institution,IS,5.666666667,2.107063433,3.085106383,2.272996368,5.208333333,1.687984236,2.520833333,1.989221844
5,high_entitlement,17644,4,33903,group1,Could you please send help?,M,Female,32,high,institution,M,5.666666667,2.107063433,3.085106383,2.272996368,5.208333333,1.687984236,2.520833333,1.989221844
5,high_entitlement,8284,9,94652,group1,Send someone to help immediately.,D,Female,58,high,institution,D,5.666666667,2.107063433,3.085106383,2.272996368,5.208333333,1.687984236,2.520833333,1.989221844
5,high_entitlement,19937,11,55304,group1,Send someone to help immediately.,D,Female,43,high,institution,D,5.666666667,2.107063433,3.085106383,2.272996368,5.208333333,1.687984236,2.520833333,1.989221844
5,high_entitlement,53943,9,90211,group1,Send someone to help immediately.,D,Female,27,high,institution,D,5.666666667,2.107063433,3.085106383,2.272996368,5.208333333,1.687984236,2.520833333,1.989221844
5,high_entitlement,19162,5,2471,group1,Send someone to help immediately.,D,Female,59,high,institution,D,5.666666667,2.107063433,3.085106383,2.272996368,5.208333333,1.687984236,2.520833333,1.989221844
5,high_entitlement,2533,8,64887,group1,Send someone to help immediately.,D,Female,30,high,institution,D,5.666666667,2.107063433,3.085106383,2.272996368,5.208333333,1.687984236,2.520833333,1.989221844
5,high_entitlement,21600,6,61519,group1,There's an intruder.,IS,Male,37,high,institution,IS,5.666666667,2.107063433,3.085106383,2.272996368,5.208333333,1.687984236,2.520833333,1.989221844
5,high_entitlement,11882,2,71391,group1,Could you please send help?,M,Male,29,high,institution,M,5.666666667,2.107063433,3.085106383,2.272996368,5.208333333,1.687984236,2.520833333,1.989221844
5,high_entitlement,36090,7,58332,group1,There's an intruder.,IS,Male,65,high,institution,IS,5.666666667,2.107063433,3.085106383,2.272996368,5.208333333,1.687984236,2.520833333,1.989221844
5,high_entitlement,16531,3,56292,group1,There's an intruder.,IS,Female,31,high,institution,IS,5.666666667,2.107063433,3.085106383,2.272996368,5.208333333,1.687984236,2.520833333,1.989221844
5,high_entitlement,30132,9,42017,group1,There's an intruder.,IS,Female,37,high,institution,IS,5.666666667,2.107063433,3.085106383,2.272996368,5.208333333,1.687984236,2.520833333,1.989221844
5,high_entitlement,18132,5,32379,group1,There's an intruder.,IS,Male,23,high,institution,IS,5.666666667,2.107063433,3.085106383,2.272996368,5.208333333,1.687984236,2.520833333,1.989221844
5,high_entitlement,20322,2,81283,group1,There's an intruder.,IS,Female,30,high,institution,IS,5.666666667,2.107063433,3.085106383,2.272996368,5.208333333,1.687984236,2.520833333,1.989221844
5,high_entitlement,7333,7,89974,group1,Could you please send help?,M,Female,25,high,institution,M,5.666666667,2.107063433,3.085106383,2.272996368,5.208333333,1.687984236,2.520833333,1.989221844
5,high_entitlement,16139,10,57860,group1,Send someone to help immediately.,D,Male,35,high,institution,D,5.666666667,2.107063433,3.085106383,2.272996368,5.208333333,1.687984236,2.520833333,1.989221844
5,high_entitlement,1629,11,97756,group1,Would it be at all possible to send help?,W,Male,31,high,institution,EM,5.666666667,2.107063433,3.085106383,2.272996368,5.208333333,1.687984236,2.520833333,1.989221844
5,high_entitlement,12951,4,42306,group1,Send someone to help immediately.,D,Female,49,high,institution,D,5.666666667,2.107063433,3.085106383,2.272996368,5.208333333,1.687984236,2.520833333,1.989221844
5,high_entitlement,4409,4,8216,group1,Could you please send help?,M,Male,29,high,institution,M,5.666666667,2.107063433,3.085106383,2.272996368,5.208333333,1.687984236,2.520833333,1.989221844
5,high_entitlement,19221,10,87155,group1,Send someone to help immediately.,D,Male,26,high,institution,D,5.666666667,2.107063433,3.085106383,2.272996368,5.208333333,1.687984236,2.520833333,1.989221844
5,high_entitlement,33957,4,80148,group1,Send someone to help immediately.,D,Female,33,high,institution,D,5.666666667,2.107063433,3.085106383,2.272996368,5.208333333,1.687984236,2.520833333,1.989221844
5,high_entitlement,3040,6,34496,group1,Would it be at all possible to send help?,W,Male,27,high,institution,EM,5.666666667,2.107063433,3.085106383,2.272996368,5.208333333,1.687984236,2.520833333,1.989221844
5,high_entitlement,11985,6,45852,group1,Would it be at all possible to send help?,W,Male,27,high,institution,EM,5.666666667,2.107063433,3.085106383,2.272996368,5.208333333,1.687984236,2.520833333,1.989221844
5,low_entitlement,2205,11,91548,group2,Could you please send help?,M,Male,26,low,institution,M,4.698113208,1.866556946,4.188679245,2.08526519,5.339622642,1.807499295,2.452830189,2.080736165
5,low_entitlement,1089,8,13778,group2,Could you please send help?,M,Male,37,low,institution,M,4.698113208,1.866556946,4.188679245,2.08526519,5.339622642,1.807499295,2.452830189,2.080736165
5,low_entitlement,186100,2,1593,group2,My cat is stuck in a tree.,IS,Male,25,low,institution,IS,4.698113208,1.866556946,4.188679245,2.08526519,5.339622642,1.807499295,2.452830189,2.080736165
5,low_entitlement,5200,11,74166,group2,My cat is stuck in a tree.,IS,Male,25,low,institution,IS,4.698113208,1.866556946,4.188679245,2.08526519,5.339622642,1.807499295,2.452830189,2.080736165
5,low_entitlement,16328,10,94407,group2,Could you please send help?,M,Male,27,low,institution,M,4.698113208,1.866556946,4.188679245,2.08526519,5.339622642,1.807499295,2.452830189,2.080736165
5,low_entitlement,26039,6,9171,group2,My cat is stuck in a tree.,IS,Male,43,low,institution,IS,4.698113208,1.866556946,4.188679245,2.08526519,5.339622642,1.807499295,2.452830189,2.080736165
5,low_entitlement,32161,2,86881,group2,My cat is stuck in a tree.,IS,Female,20,low,institution,IS,4.698113208,1.866556946,4.188679245,2.08526519,5.339622642,1.807499295,2.452830189,2.080736165
5,low_entitlement,34587,7,55991,group2,Could you please send help?,M,Female,27,low,institution,M,4.698113208,1.866556946,4.188679245,2.08526519,5.339622642,1.807499295,2.452830189,2.080736165
5,low_entitlement,10081,4,25273,group2,Could you please send help?,M,Male,48,low,institution,M,4.698113208,1.866556946,4.188679245,2.08526519,5.339622642,1.807499295,2.452830189,2.080736165
5,low_entitlement,12091,6,40239,group2,Send someone to help immediately.,D,Female,56,low,institution,D,4.698113208,1.866556946,4.188679245,2.08526519,5.339622642,1.807499295,2.452830189,2.080736165
5,low_entitlement,14416,6,71861,group2,Would it be at all possible to send help?,W,Male,30,low,institution,EM,4.698113208,1.866556946,4.188679245,2.08526519,5.339622642,1.807499295,2.452830189,2.080736165
5,low_entitlement,3855,10,74734,group2,My cat is stuck in a tree.,IS,Female,31,low,institution,IS,4.698113208,1.866556946,4.188679245,2.08526519,5.339622642,1.807499295,2.452830189,2.080736165
5,low_entitlement,8930,5,90609,group2,Would it be at all possible to send help?,W,Female,21,low,institution,EM,4.698113208,1.866556946,4.188679245,2.08526519,5.339622642,1.807499295,2.452830189,2.080736165
5,low_entitlement,6971,8,45610,group2,Could you please send help?,M,Female,21,low,institution,M,4.698113208,1.866556946,4.188679245,2.08526519,5.339622642,1.807499295,2.452830189,2.080736165
5,low_entitlement,6845,7,76012,group2,Could you please send help?,M,Male,27,low,institution,M,4.698113208,1.866556946,4.188679245,2.08526519,5.339622642,1.807499295,2.452830189,2.080736165
5,low_entitlement,6764,9,98986,group2,Could you please send help?,M,Female,34,low,institution,M,4.698113208,1.866556946,4.188679245,2.08526519,5.339622642,1.807499295,2.452830189,2.080736165
5,low_entitlement,5658,8,87512,group2,Could you please send help?,M,Male,38,low,institution,M,4.698113208,1.866556946,4.188679245,2.08526519,5.339622642,1.807499295,2.452830189,2.080736165
5,low_entitlement,20289,6,70928,group2,Could you please send help?,M,Male,30,low,institution,M,4.698113208,1.866556946,4.188679245,2.08526519,5.339622642,1.807499295,2.452830189,2.080736165
5,low_entitlement,11066,10,85567,group2,My cat is stuck in a tree.,IS,Male,33,low,institution,IS,4.698113208,1.866556946,4.188679245,2.08526519,5.339622642,1.807499295,2.452830189,2.080736165
5,low_entitlement,2392,10,83161,group2,Would it be at all possible to send help?,W,Male,30,low,institution,EM,4.698113208,1.866556946,4.188679245,2.08526519,5.339622642,1.807499295,2.452830189,2.080736165
5,low_entitlement,17381,11,79859,group2,My cat is stuck in a tree.,IS,Female,27,low,institution,IS,4.698113208,1.866556946,4.188679245,2.08526519,5.339622642,1.807499295,2.452830189,2.080736165
5,low_entitlement,23771,5,16670,group2,Could you please send help?,M,Male,30,low,institution,M,4.698113208,1.866556946,4.188679245,2.08526519,5.339622642,1.807499295,2.452830189,2.080736165
5,low_entitlement,13636,7,7349,group2,Would it be at all possible to send help?,W,Male,33,low,institution,EM,4.698113208,1.866556946,4.188679245,2.08526519,5.339622642,1.807499295,2.452830189,2.080736165
5,low_entitlement,16471,8,5514,group2,Could you please send help?,M,Female,47,low,institution,M,4.698113208,1.866556946,4.188679245,2.08526519,5.339622642,1.807499295,2.452830189,2.080736165
5,low_entitlement,12317,6,56171,group2,My cat is stuck in a tree.,IS,Female,48,low,institution,IS,4.698113208,1.866556946,4.188679245,2.08526519,5.339622642,1.807499295,2.452830189,2.080736165
5,low_entitlement,3246,5,1977,group2,Would it be at all possible to send help?,W,Male,33,low,institution,EM,4.698113208,1.866556946,4.188679245,2.08526519,5.339622642,1.807499295,2.452830189,2.080736165
5,low_entitlement,3305,10,45177,group2,Would it be at all possible to send help?,W,Male,29,low,institution,EM,4.698113208,1.866556946,4.188679245,2.08526519,5.339622642,1.807499295,2.452830189,2.080736165
5,low_entitlement,22054,2,90079,group2,My cat is stuck in a tree.,IS,Male,39,low,institution,IS,4.698113208,1.866556946,4.188679245,2.08526519,5.339622642,1.807499295,2.452830189,2.080736165
5,low_entitlement,10059,3,48563,group2,My cat is stuck in a tree.,IS,Male,25,low,institution,IS,4.698113208,1.866556946,4.188679245,2.08526519,5.339622642,1.807499295,2.452830189,2.080736165
5,low_entitlement,11915,2,22282,group2,Would it be at all possible to send help?,W,Male,43,low,institution,EM,4.698113208,1.866556946,4.188679245,2.08526519,5.339622642,1.807499295,2.452830189,2.080736165
5,low_entitlement,22091,3,36333,group2,My cat is stuck in a tree.,IS,Female,42,low,institution,IS,4.698113208,1.866556946,4.188679245,2.08526519,5.339622642,1.807499295,2.452830189,2.080736165
5,low_entitlement,29727,5,8324,group2,My cat is stuck in a tree.,IS,Female,30,low,institution,IS,4.698113208,1.866556946,4.188679245,2.08526519,5.339622642,1.807499295,2.452830189,2.080736165
5,low_entitlement,18895,4,43477,group2,My cat is stuck in a tree.,IS,Male,26,low,institution,IS,4.698113208,1.866556946,4.188679245,2.08526519,5.339622642,1.807499295,2.452830189,2.080736165
5,low_entitlement,19160,10,3324,group2,My cat is stuck in a tree.,IS,Male,41,low,institution,IS,4.698113208,1.866556946,4.188679245,2.08526519,5.339622642,1.807499295,2.452830189,2.080736165
5,low_entitlement,17747,11,19424,group2,My cat is stuck in a tree.,IS,Female,52,low,institution,IS,4.698113208,1.866556946,4.188679245,2.08526519,5.339622642,1.807499295,2.452830189,2.080736165
5,low_entitlement,5777,6,65743,group2,Send someone to help immediately.,D,Male,26,low,institution,D,4.698113208,1.866556946,4.188679245,2.08526519,5.339622642,1.807499295,2.452830189,2.080736165
5,low_entitlement,12451,10,42146,group2,My cat is stuck in a tree.,IS,Female,34,low,institution,IS,4.698113208,1.866556946,4.188679245,2.08526519,5.339622642,1.807499295,2.452830189,2.080736165
