"","X","rt","url","trial_type","trial_index","time_elapsed","internal_node_id","subject","group","turkID","surveyCode","responses","stimType","stimNum","type","answer","code","Gender","Age","condition","situation","formatting"
"1",2,6092,"","survey-multi-choice",2,27411,"0.0-2.0",11674,"group1","",80007,"{""Q0"":""I need to see the doctor.""}","low_entitlement",6,"institution","I need to see the doctor.","D","Male",41,"low","institution","D"
"2",3,1700,"","survey-multi-choice",3,30119,"0.0-3.0",11674,"group1","",80007,"{""Q0"":""Would it be at all possible to send help?""}","high_entitlement",5,"institution","Would it be at all possible to send help?","W","Male",41,"high","institution","EM"
"3",4,2073,"","survey-multi-choice",4,33199,"0.0-4.0",11674,"group1","",80007,"{""Q0"":""Hey, help me move my stuff.""}","high_entitlement",1,"interaction","Hey, help me move my stuff.","D","Male",41,"high","interaction","D"
"4",5,1257,"","survey-multi-choice",5,35463,"0.0-5.0",11674,"group1","",80007,"{""Q0"":""Can I stay with you tonight?""}","high_entitlement",9,"urgency","Can I stay with you tonight?","M","Male",41,"high","urgency","M"
"5",6,1745,"","survey-multi-choice",6,38215,"0.0-6.0",11674,"group1","",80007,"{""Q0"":""I don't know how to get to the doctor.""}","low_entitlement",10,"urgency","I don't know how to get to the doctor.","IS","Male",41,"low","urgency","IS"
"6",8,2360,"","survey-multi-choice",8,43767,"0.0-8.0",11674,"group1","",80007,"{""Q0"":""I'm short on cash this month, and rent is coming up.""}","low_entitlement",2,"interaction","I'm short on cash this month, and rent is coming up.","IS","Male",41,"low","interaction","IS"
"7",10,1259,"","survey-multi-choice",10,49255,"0.0-10.0",11674,"group1","",80007,"{""Q0"":""I need you to compile these reports.""}","high_entitlement",3,"relationship","I need you to compile these reports.","D","Male",41,"high","relationship","D"
"8",11,1584,"","survey-multi-choice",11,51847,"0.0-11.0",11674,"group1","",80007,"{""Q0"":""I'm stuck at the airport.""}","low_entitlement",4,"relationship","I'm stuck at the airport.","IS","Male",41,"low","relationship","IS"
"9",2,4363,"","survey-multi-choice",2,18967,"0.0-2.0",13778,"group2","",110195,"{""Q0"":""Is there any way you could help move my stuff?""}","low_entitlement",1,"interaction","Is there any way you could help move my stuff?","W","Male",37,"low","interaction","EM"
"10",3,9316,"","survey-multi-choice",3,29288,"0.0-3.0",13778,"group2","",110195,"{""Q0"":""Can I stay with you tonight?""}","low_entitlement",9,"urgency","Can I stay with you tonight?","M","Male",37,"low","urgency","M"
"11",5,3627,"","survey-multi-choice",5,39732,"0.0-5.0",13778,"group2","",110195,"{""Q0"":""Is there any way you'd be able to pick me up at the airport?""}","high_entitlement",4,"relationship","Is there any way you'd be able to pick me up at the airport?","W","Male",37,"high","relationship","EM"
"12",6,1740,"","survey-multi-choice",6,42478,"0.0-6.0",13778,"group2","",110195,"{""Q0"":""I'm short on cash this month, and rent is coming up.""}","high_entitlement",2,"interaction","I'm short on cash this month, and rent is coming up.","IS","Male",37,"high","interaction","IS"
"13",7,2897,"","survey-multi-choice",7,46379,"0.0-7.0",13778,"group2","",110195,"{""Q0"":""I was wondering if I could see the doctor?""}","high_entitlement",6,"institution","I was wondering if I could see the doctor?","W","Male",37,"high","institution","EM"
"14",8,1089,"","survey-multi-choice",8,48473,"0.0-8.0",13778,"group2","",110195,"{""Q0"":""Could you please send help?""}","low_entitlement",5,"institution","Could you please send help?","M","Male",37,"low","institution","M"
"15",9,3508,"","survey-multi-choice",9,52989,"0.0-9.0",13778,"group2","",110195,"{""Q0"":""I was wondering if you could give me a ride to the doctor?""}","high_entitlement",10,"urgency","I was wondering if you could give me a ride to the doctor?","W","Male",37,"high","urgency","EM"
"16",11,8182,"","survey-multi-choice",11,65528,"0.0-11.0",13778,"group2","",110195,"{""Q0"":""I was wondering if I could get copies of the expense and quarterly reports?""}","low_entitlement",3,"relationship","I was wondering if I could get copies of the expense and quarterly reports?","W","Male",37,"low","relationship","EM"
"17",2,186100,"","survey-multi-choice",2,256108,"0.0-2.0",1593,"group2","",203115,"{""Q0"":""My cat is stuck in a tree.""}","low_entitlement",5,"institution","My cat is stuck in a tree.","IS","Male",25,"low","institution","IS"
"18",4,26249,"","survey-multi-choice",4,308776,"0.0-4.0",1593,"group2","",203115,"{""Q0"":""Would it be at all possible for me to stay with you tonight?""}","low_entitlement",9,"urgency","Would it be at all possible for me to stay with you tonight?","W","Male",25,"low","urgency","EM"
"19",5,9290,"","survey-multi-choice",5,319072,"0.0-5.0",1593,"group2","",203115,"{""Q0"":""Could you help me move this stuff into my apartment?""}","low_entitlement",1,"interaction","Could you help me move this stuff into my apartment?","M","Male",25,"low","interaction","M"
"20",6,3563,"","survey-multi-choice",6,323640,"0.0-6.0",1593,"group2","",203115,"{""Q0"":""Can you get me the copies of the expense and quarterly reports?""}","low_entitlement",3,"relationship","Can you get me the copies of the expense and quarterly reports?","M","Male",25,"low","relationship","M"
"21",8,7689,"","survey-multi-choice",8,338216,"0.0-8.0",1593,"group2","",203115,"{""Q0"":""I need you to cover my rent this month.""}","high_entitlement",2,"interaction","I need you to cover my rent this month.","D","Male",25,"high","interaction","D"
"22",9,2698,"","survey-multi-choice",9,341920,"0.0-9.0",1593,"group2","",203115,"{""Q0"":""I don't know how to get to the doctor.""}","high_entitlement",10,"urgency","I don't know how to get to the doctor.","IS","Male",25,"high","urgency","IS"
"23",10,9281,"","survey-multi-choice",10,352208,"0.0-10.0",1593,"group2","",203115,"{""Q0"":""I was wondering if I could see the doctor?""}","high_entitlement",6,"institution","I was wondering if I could see the doctor?","W","Male",25,"high","institution","EM"
"24",11,2290,"","survey-multi-choice",11,355504,"0.0-11.0",1593,"group2","",203115,"{""Q0"":""I need you to give me a ride home.""}","high_entitlement",4,"relationship","I need you to give me a ride home.","D","Male",25,"high","relationship","D"
"25",2,64809,"","survey-multi-choice",2,175304,"0.0-2.0",16670,"group2","",449286,"{""Q0"":""Can you help me out with the rent?""}","high_entitlement",2,"interaction","Can you help me out with the rent?","M","Male",30,"high","interaction","M"
"26",4,31948,"","survey-multi-choice",4,266291,"0.0-4.0",16670,"group2","",449286,"{""Q0"":""Can you get me the copies of the expense and quarterly reports?""}","low_entitlement",3,"relationship","Can you get me the copies of the expense and quarterly reports?","M","Male",30,"low","relationship","M"
"27",5,23771,"","survey-multi-choice",5,291066,"0.0-5.0",16670,"group2","",449286,"{""Q0"":""Could you please send help?""}","low_entitlement",5,"institution","Could you please send help?","M","Male",30,"low","institution","M"
"28",6,21268,"","survey-multi-choice",6,313337,"0.0-6.0",16670,"group2","",449286,"{""Q0"":""Can you pick me up at the airport?""}","high_entitlement",4,"relationship","Can you pick me up at the airport?","M","Male",30,"high","relationship","M"
"29",7,36296,"","survey-multi-choice",7,350637,"0.0-7.0",16670,"group2","",449286,"{""Q0"":""Would it be at all possible for me to stay with you tonight?""}","low_entitlement",9,"urgency","Would it be at all possible for me to stay with you tonight?","W","Male",30,"low","urgency","EM"
"30",8,17468,"","survey-multi-choice",8,369109,"0.0-8.0",16670,"group2","",449286,"{""Q0"":""Can I see the doctor?""}","high_entitlement",6,"institution","Can I see the doctor?","M","Male",30,"high","institution","M"
"31",10,27807,"","survey-multi-choice",10,432049,"0.0-10.0",16670,"group2","",449286,"{""Q0"":""I need you to drive me to the doctor.""}","high_entitlement",10,"urgency","I need you to drive me to the doctor.","D","Male",30,"high","urgency","D"
"32",11,23368,"","survey-multi-choice",11,456422,"0.0-11.0",16670,"group2","",449286,"{""Q0"":""Hey, help me move my stuff.""}","low_entitlement",1,"interaction","Hey, help me move my stuff.","D","Male",30,"low","interaction","D"
"33",2,31792,"","survey-multi-choice",2,148511,"0.0-2.0",16711,"group1","",269591,"{""Q0"":""Is there any way you could help move my stuff?""}","high_entitlement",1,"interaction","Is there any way you could help move my stuff?","W","Female",42,"high","interaction","EM"
"34",3,26346,"","survey-multi-choice",3,175866,"0.0-3.0",16711,"group1","",269591,"{""Q0"":""Can I stay with you tonight?""}","high_entitlement",9,"urgency","Can I stay with you tonight?","M","Female",42,"high","urgency","M"
"35",5,19309,"","survey-multi-choice",5,215626,"0.0-5.0",16711,"group1","",269591,"{""Q0"":""I was wondering if I could get copies of the expense and quarterly reports?""}","high_entitlement",3,"relationship","I was wondering if I could get copies of the expense and quarterly reports?","W","Female",42,"high","relationship","EM"
"36",6,22108,"","survey-multi-choice",6,238742,"0.0-6.0",16711,"group1","",269591,"{""Q0"":""Send someone to help immediately.""}","high_entitlement",5,"institution","Send someone to help immediately.","D","Female",42,"high","institution","D"
"37",7,43134,"","survey-multi-choice",7,282880,"0.0-7.0",16711,"group1","",269591,"{""Q0"":""I haven't had a physical this year.""}","low_entitlement",6,"institution","I haven't had a physical this year.","IS","Female",42,"low","institution","IS"
"38",8,19104,"","survey-multi-choice",8,303003,"0.0-8.0",16711,"group1","",269591,"{""Q0"":""Is there any way you'd be able to pick me up at the airport?""}","low_entitlement",4,"relationship","Is there any way you'd be able to pick me up at the airport?","W","Female",42,"low","relationship","EM"
"39",9,13850,"","survey-multi-choice",9,317866,"0.0-9.0",16711,"group1","",269591,"{""Q0"":""Could you drive me to the doctor?""}","low_entitlement",10,"urgency","Could you drive me to the doctor?","M","Female",42,"low","urgency","M"
"40",10,18983,"","survey-multi-choice",10,337853,"0.0-10.0",16711,"group1","",269591,"{""Q0"":""I'm short on cash this month, and rent is coming up.""}","low_entitlement",2,"interaction","I'm short on cash this month, and rent is coming up.","IS","Female",42,"low","interaction","IS"
"41",2,27430,"","survey-multi-choice",2,82942,"0.0-2.0",19424,"group2","",986766,"{""Q0"":""Would it be at all possible to help me out with the rent?""}","high_entitlement",2,"interaction","Would it be at all possible to help me out with the rent?","W","Female",52,"high","interaction","EM"
"42",3,13234,"","survey-multi-choice",3,97182,"0.0-3.0",19424,"group2","",986766,"{""Q0"":""I need you to drive me to the doctor.""}","high_entitlement",10,"urgency","I need you to drive me to the doctor.","D","Female",52,"high","urgency","D"
"43",4,15845,"","survey-multi-choice",4,114034,"0.0-4.0",19424,"group2","",986766,"{""Q0"":""Would it be at all possible for me to stay with you tonight?""}","low_entitlement",9,"urgency","Would it be at all possible for me to stay with you tonight?","W","Female",52,"low","urgency","EM"
"44",6,14999,"","survey-multi-choice",6,137860,"0.0-6.0",19424,"group2","",986766,"{""Q0"":""I was wondering if I could get copies of the expense and quarterly reports?""}","low_entitlement",3,"relationship","I was wondering if I could get copies of the expense and quarterly reports?","W","Female",52,"low","relationship","EM"
"45",7,17025,"","survey-multi-choice",7,155889,"0.0-7.0",19424,"group2","",986766,"{""Q0"":""Is there any way you could help move my stuff?""}","low_entitlement",1,"interaction","Is there any way you could help move my stuff?","W","Female",52,"low","interaction","EM"
"46",8,16090,"","survey-multi-choice",8,172983,"0.0-8.0",19424,"group2","",986766,"{""Q0"":""I need you to give me a ride home.""}","high_entitlement",4,"relationship","I need you to give me a ride home.","D","Female",52,"high","relationship","D"
"47",10,8675,"","survey-multi-choice",10,191789,"0.0-10.0",19424,"group2","",986766,"{""Q0"":""I need to see the doctor.""}","high_entitlement",6,"institution","I need to see the doctor.","D","Female",52,"high","institution","D"
"48",11,17747,"","survey-multi-choice",11,210541,"0.0-11.0",19424,"group2","",986766,"{""Q0"":""My cat is stuck in a tree.""}","low_entitlement",5,"institution","My cat is stuck in a tree.","IS","Female",52,"low","institution","IS"
"49",3,7963,"","survey-multi-choice",3,105089,"0.0-3.0",1977,"group2","",599183,"{""Q0"":""I need to see the doctor.""}","high_entitlement",6,"institution","I need to see the doctor.","D","Male",33,"high","institution","D"
"50",4,3325,"","survey-multi-choice",4,109421,"0.0-4.0",1977,"group2","",599183,"{""Q0"":""I was wondering if I could get copies of the expense and quarterly reports?""}","low_entitlement",3,"relationship","I was wondering if I could get copies of the expense and quarterly reports?","W","Male",33,"low","relationship","EM"
"51",5,3246,"","survey-multi-choice",5,113674,"0.0-5.0",1977,"group2","",599183,"{""Q0"":""Would it be at all possible to send help?""}","low_entitlement",5,"institution","Would it be at all possible to send help?","W","Male",33,"low","institution","EM"
"52",7,3762,"","survey-multi-choice",7,122410,"0.0-7.0",1977,"group2","",599183,"{""Q0"":""Could you drive me to the doctor?""}","high_entitlement",10,"urgency","Could you drive me to the doctor?","M","Male",33,"high","urgency","M"
"53",8,3975,"","survey-multi-choice",8,127393,"0.0-8.0",1977,"group2","",599183,"{""Q0"":""I'm stuck at the airport.""}","high_entitlement",4,"relationship","I'm stuck at the airport.","IS","Male",33,"high","relationship","IS"
"54",9,3617,"","survey-multi-choice",9,132022,"0.0-9.0",1977,"group2","",599183,"{""Q0"":""This desk is pretty heavy.""}","low_entitlement",1,"interaction","This desk is pretty heavy.","IS","Male",33,"low","interaction","IS"
"55",10,4118,"","survey-multi-choice",10,137148,"0.0-10.0",1977,"group2","",599183,"{""Q0"":""Can you help me out with the rent?""}","high_entitlement",2,"interaction","Can you help me out with the rent?","M","Male",33,"high","interaction","M"
"56",11,4658,"","survey-multi-choice",11,142817,"0.0-11.0",1977,"group2","",599183,"{""Q0"":""I need you to host me.""}","low_entitlement",9,"urgency","I need you to host me.","D","Male",33,"low","urgency","D"
"57",2,6109,"","survey-multi-choice",2,27168,"0.0-2.0",20794,"group1","",600927,"{""Q0"":""Can you get me the copies of the expense and quarterly reports?""}","high_entitlement",3,"relationship","Can you get me the copies of the expense and quarterly reports?","M","Female",33,"high","relationship","M"
"58",3,15737,"","survey-multi-choice",3,43911,"0.0-3.0",20794,"group1","",600927,"{""Q0"":""Send someone to help immediately.""}","high_entitlement",5,"institution","Send someone to help immediately.","D","Female",33,"high","institution","D"
"59",4,6441,"","survey-multi-choice",4,51358,"0.0-4.0",20794,"group1","",600927,"{""Q0"":""Can I see the doctor?""}","low_entitlement",6,"institution","Can I see the doctor?","M","Female",33,"low","institution","M"
"60",6,9130,"","survey-multi-choice",6,70966,"0.0-6.0",20794,"group1","",600927,"{""Q0"":""This desk is pretty heavy.""}","high_entitlement",1,"interaction","This desk is pretty heavy.","IS","Female",33,"high","interaction","IS"
"61",8,4076,"","survey-multi-choice",8,84965,"0.0-8.0",20794,"group1","",600927,"{""Q0"":""I was wondering if you could give me a ride to the doctor?""}","low_entitlement",10,"urgency","I was wondering if you could give me a ride to the doctor?","W","Female",33,"low","urgency","EM"
"62",9,4936,"","survey-multi-choice",9,90910,"0.0-9.0",20794,"group1","",600927,"{""Q0"":""Would it be at all possible for me to stay with you tonight?""}","high_entitlement",9,"urgency","Would it be at all possible for me to stay with you tonight?","W","Female",33,"high","urgency","EM"
"63",10,2218,"","survey-multi-choice",10,94134,"0.0-10.0",20794,"group1","",600927,"{""Q0"":""Is there any way you'd be able to pick me up at the airport?""}","low_entitlement",4,"relationship","Is there any way you'd be able to pick me up at the airport?","W","Female",33,"low","relationship","EM"
"64",11,38740,"","survey-multi-choice",11,133878,"0.0-11.0",20794,"group1","",600927,"{""Q0"":""Would it be at all possible to help me out with the rent?""}","low_entitlement",2,"interaction","Would it be at all possible to help me out with the rent?","W","Female",33,"low","interaction","EM"
"65",2,11915,"","survey-multi-choice",2,32475,"0.0-2.0",22282,"group2","",647350,"{""Q0"":""Would it be at all possible to send help?""}","low_entitlement",5,"institution","Would it be at all possible to send help?","W","Male",43,"low","institution","EM"
"66",3,7870,"","survey-multi-choice",3,41349,"0.0-3.0",22282,"group2","",647350,"{""Q0"":""Would it be at all possible for me to stay with you tonight?""}","low_entitlement",9,"urgency","Would it be at all possible for me to stay with you tonight?","W","Male",43,"low","urgency","EM"
"67",4,11257,"","survey-multi-choice",4,53608,"0.0-4.0",22282,"group2","",647350,"{""Q0"":""Can you get me the copies of the expense and quarterly reports?""}","low_entitlement",3,"relationship","Can you get me the copies of the expense and quarterly reports?","M","Male",43,"low","relationship","M"
"68",5,18065,"","survey-multi-choice",5,72676,"0.0-5.0",22282,"group2","",647350,"{""Q0"":""Could you help me move this stuff into my apartment?""}","low_entitlement",1,"interaction","Could you help me move this stuff into my apartment?","M","Male",43,"low","interaction","M"
"69",6,8910,"","survey-multi-choice",6,82588,"0.0-6.0",22282,"group2","",647350,"{""Q0"":""Could you drive me to the doctor?""}","high_entitlement",10,"urgency","Could you drive me to the doctor?","M","Male",43,"high","urgency","M"
"70",7,8403,"","survey-multi-choice",7,91994,"0.0-7.0",22282,"group2","",647350,"{""Q0"":""Can you pick me up at the airport?""}","high_entitlement",4,"relationship","Can you pick me up at the airport?","M","Male",43,"high","relationship","M"
"71",9,10671,"","survey-multi-choice",9,109820,"0.0-9.0",22282,"group2","",647350,"{""Q0"":""I need to see the doctor.""}","high_entitlement",6,"institution","I need to see the doctor.","D","Male",43,"high","institution","D"
"72",10,8402,"","survey-multi-choice",10,119226,"0.0-10.0",22282,"group2","",647350,"{""Q0"":""I need you to cover my rent this month.""}","high_entitlement",2,"interaction","I need you to cover my rent this month.","D","Male",43,"high","interaction","D"
"73",2,15127,"","survey-multi-choice",2,41033,"0.0-2.0",24041,"group1","",378302,"{""Q0"":""There's an intruder.""}","high_entitlement",5,"institution","There's an intruder.","IS","Male",39,"high","institution","IS"
"74",3,16536,"","survey-multi-choice",3,58589,"0.0-3.0",24041,"group1","",378302,"{""Q0"":""I haven't had a physical this year.""}","low_entitlement",6,"institution","I haven't had a physical this year.","IS","Male",39,"low","institution","IS"
"75",4,17406,"","survey-multi-choice",4,77014,"0.0-4.0",24041,"group1","",378302,"{""Q0"":""Could you help me move this stuff into my apartment?""}","high_entitlement",1,"interaction","Could you help me move this stuff into my apartment?","M","Male",39,"high","interaction","M"
"76",5,19094,"","survey-multi-choice",5,97126,"0.0-5.0",24041,"group1","",378302,"{""Q0"":""I need you to host me.""}","high_entitlement",9,"urgency","I need you to host me.","D","Male",39,"high","urgency","D"
"77",6,12459,"","survey-multi-choice",6,110604,"0.0-6.0",24041,"group1","",378302,"{""Q0"":""I was wondering if I could get copies of the expense and quarterly reports?""}","high_entitlement",3,"relationship","I was wondering if I could get copies of the expense and quarterly reports?","W","Male",39,"high","relationship","EM"
"78",7,7505,"","survey-multi-choice",7,119129,"0.0-7.0",24041,"group1","",378302,"{""Q0"":""I'm stuck at the airport.""}","low_entitlement",4,"relationship","I'm stuck at the airport.","IS","Male",39,"low","relationship","IS"
"79",8,7212,"","survey-multi-choice",8,127358,"0.0-8.0",24041,"group1","",378302,"{""Q0"":""I need you to drive me to the doctor.""}","low_entitlement",10,"urgency","I need you to drive me to the doctor.","D","Male",39,"low","urgency","D"
"80",10,11187,"","survey-multi-choice",10,149115,"0.0-10.0",24041,"group1","",378302,"{""Q0"":""Can you help me out with the rent?""}","low_entitlement",2,"interaction","Can you help me out with the rent?","M","Male",39,"low","interaction","M"
"81",2,15632,"","survey-multi-choice",2,61445,"0.0-2.0",2471,"group1","",985874,"{""Q0"":""I was wondering if you could give me a ride to the doctor?""}","low_entitlement",10,"urgency","I was wondering if you could give me a ride to the doctor?","W","Female",59,"low","urgency","EM"
"82",4,16476,"","survey-multi-choice",4,91692,"0.0-4.0",2471,"group1","",985874,"{""Q0"":""Could you help me move this stuff into my apartment?""}","high_entitlement",1,"interaction","Could you help me move this stuff into my apartment?","M","Female",59,"high","interaction","M"
"83",5,19162,"","survey-multi-choice",5,111868,"0.0-5.0",2471,"group1","",985874,"{""Q0"":""Send someone to help immediately.""}","high_entitlement",5,"institution","Send someone to help immediately.","D","Female",59,"high","institution","D"
"84",6,12101,"","survey-multi-choice",6,124976,"0.0-6.0",2471,"group1","",985874,"{""Q0"":""Would it be at all possible to help me out with the rent?""}","low_entitlement",2,"interaction","Would it be at all possible to help me out with the rent?","W","Female",59,"low","interaction","EM"
"85",7,12602,"","survey-multi-choice",7,138601,"0.0-7.0",2471,"group1","",985874,"{""Q0"":""Is there any way you'd be able to pick me up at the airport?""}","low_entitlement",4,"relationship","Is there any way you'd be able to pick me up at the airport?","W","Female",59,"low","relationship","EM"
"86",8,15619,"","survey-multi-choice",8,155229,"0.0-8.0",2471,"group1","",985874,"{""Q0"":""Would it be at all possible for me to stay with you tonight?""}","high_entitlement",9,"urgency","Would it be at all possible for me to stay with you tonight?","W","Female",59,"high","urgency","EM"
"87",9,12267,"","survey-multi-choice",9,168505,"0.0-9.0",2471,"group1","",985874,"{""Q0"":""Can you get me the copies of the expense and quarterly reports?""}","high_entitlement",3,"relationship","Can you get me the copies of the expense and quarterly reports?","M","Female",59,"high","relationship","M"
"88",10,18105,"","survey-multi-choice",10,187623,"0.0-10.0",2471,"group1","",985874,"{""Q0"":""I need to see the doctor.""}","low_entitlement",6,"institution","I need to see the doctor.","D","Female",59,"low","institution","D"
"89",2,11285,"","survey-multi-choice",2,292716,"0.0-2.0",24718,"group1","",110989,"{""Q0"":""I was wondering if you could give me a ride to the doctor?""}","low_entitlement",10,"urgency","I was wondering if you could give me a ride to the doctor?","W","Female",40,"low","urgency","EM"
"90",3,13931,"","survey-multi-choice",3,307653,"0.0-3.0",24718,"group1","",110989,"{""Q0"":""I need you to compile these reports.""}","high_entitlement",3,"relationship","I need you to compile these reports.","D","Female",40,"high","relationship","D"
"91",4,14039,"","survey-multi-choice",4,322700,"0.0-4.0",24718,"group1","",110989,"{""Q0"":""Send someone to help immediately.""}","high_entitlement",5,"institution","Send someone to help immediately.","D","Female",40,"high","institution","D"
"92",6,12666,"","survey-multi-choice",6,348477,"0.0-6.0",24718,"group1","",110989,"{""Q0"":""Is there any way you'd be able to pick me up at the airport?""}","low_entitlement",4,"relationship","Is there any way you'd be able to pick me up at the airport?","W","Female",40,"low","relationship","EM"
"93",8,30336,"","survey-multi-choice",8,389751,"0.0-8.0",24718,"group1","",110989,"{""Q0"":""Is there any way you could help move my stuff?""}","high_entitlement",1,"interaction","Is there any way you could help move my stuff?","W","Female",40,"high","interaction","EM"
"94",9,7097,"","survey-multi-choice",9,397860,"0.0-9.0",24718,"group1","",110989,"{""Q0"":""I need to see the doctor.""}","low_entitlement",6,"institution","I need to see the doctor.","D","Female",40,"low","institution","D"
"95",10,13411,"","survey-multi-choice",10,412278,"0.0-10.0",24718,"group1","",110989,"{""Q0"":""Would it be at all possible for me to stay with you tonight?""}","high_entitlement",9,"urgency","Would it be at all possible for me to stay with you tonight?","W","Female",40,"high","urgency","EM"
"96",11,12173,"","survey-multi-choice",11,425460,"0.0-11.0",24718,"group1","",110989,"{""Q0"":""Would it be at all possible to help me out with the rent?""}","low_entitlement",2,"interaction","Would it be at all possible to help me out with the rent?","W","Female",40,"low","interaction","EM"
"97",2,13967,"","survey-multi-choice",2,37093,"0.0-2.0",24995,"group1","",917810,"{""Q0"":""Can I stay with you tonight?""}","high_entitlement",9,"urgency","Can I stay with you tonight?","M","Male",30,"high","urgency","M"
"98",3,8411,"","survey-multi-choice",3,46513,"0.0-3.0",24995,"group1","",917810,"{""Q0"":""Is there any way you'd be able to pick me up at the airport?""}","low_entitlement",4,"relationship","Is there any way you'd be able to pick me up at the airport?","W","Male",30,"low","relationship","EM"
"99",4,8308,"","survey-multi-choice",4,55833,"0.0-4.0",24995,"group1","",917810,"{""Q0"":""Can you get me the copies of the expense and quarterly reports?""}","high_entitlement",3,"relationship","Can you get me the copies of the expense and quarterly reports?","M","Male",30,"high","relationship","M"
"100",6,7328,"","survey-multi-choice",6,72394,"0.0-6.0",24995,"group1","",917810,"{""Q0"":""Would it be at all possible to help me out with the rent?""}","low_entitlement",2,"interaction","Would it be at all possible to help me out with the rent?","W","Male",30,"low","interaction","EM"
"101",7,19882,"","survey-multi-choice",7,93286,"0.0-7.0",24995,"group1","",917810,"{""Q0"":""Hey, help me move my stuff.""}","high_entitlement",1,"interaction","Hey, help me move my stuff.","D","Male",30,"high","interaction","D"
"102",8,8468,"","survey-multi-choice",8,102764,"0.0-8.0",24995,"group1","",917810,"{""Q0"":""I need to see the doctor.""}","low_entitlement",6,"institution","I need to see the doctor.","D","Male",30,"low","institution","D"
"103",10,7026,"","survey-multi-choice",10,119074,"0.0-10.0",24995,"group1","",917810,"{""Q0"":""Could you drive me to the doctor?""}","low_entitlement",10,"urgency","Could you drive me to the doctor?","M","Male",30,"low","urgency","M"
"104",11,7731,"","survey-multi-choice",11,127814,"0.0-11.0",24995,"group1","",917810,"{""Q0"":""Send someone to help immediately.""}","high_entitlement",5,"institution","Send someone to help immediately.","D","Male",30,"high","institution","D"
"105",3,10983,"","survey-multi-choice",3,60345,"0.0-3.0",25273,"group2","A2MWOC8THMPE6C",348019,"{""Q0"":""Would it be at all possible to help me out with the rent?""}","high_entitlement",2,"interaction","Would it be at all possible to help me out with the rent?","W","Male",48,"high","interaction","EM"
"106",4,10081,"","survey-multi-choice",4,71441,"0.0-4.0",25273,"group2","A2MWOC8THMPE6C",348019,"{""Q0"":""Could you please send help?""}","low_entitlement",5,"institution","Could you please send help?","M","Male",48,"low","institution","M"
"107",5,16589,"","survey-multi-choice",5,89067,"0.0-5.0",25273,"group2","A2MWOC8THMPE6C",348019,"{""Q0"":""I was wondering if I could get copies of the expense and quarterly reports?""}","low_entitlement",3,"relationship","I was wondering if I could get copies of the expense and quarterly reports?","W","Male",48,"low","relationship","EM"
"108",6,13317,"","survey-multi-choice",6,103403,"0.0-6.0",25273,"group2","A2MWOC8THMPE6C",348019,"{""Q0"":""Would it be at all possible for me to stay with you tonight?""}","low_entitlement",9,"urgency","Would it be at all possible for me to stay with you tonight?","W","Male",48,"low","urgency","EM"
"109",7,8056,"","survey-multi-choice",7,112472,"0.0-7.0",25273,"group2","A2MWOC8THMPE6C",348019,"{""Q0"":""Can you pick me up at the airport?""}","high_entitlement",4,"relationship","Can you pick me up at the airport?","M","Male",48,"high","relationship","M"
"110",8,15589,"","survey-multi-choice",8,129072,"0.0-8.0",25273,"group2","A2MWOC8THMPE6C",348019,"{""Q0"":""I need you to drive me to the doctor.""}","high_entitlement",10,"urgency","I need you to drive me to the doctor.","D","Male",48,"high","urgency","D"
"111",9,9527,"","survey-multi-choice",9,139609,"0.0-9.0",25273,"group2","A2MWOC8THMPE6C",348019,"{""Q0"":""I need to see the doctor.""}","high_entitlement",6,"institution","I need to see the doctor.","D","Male",48,"high","institution","D"
"112",10,17891,"","survey-multi-choice",10,158510,"0.0-10.0",25273,"group2","A2MWOC8THMPE6C",348019,"{""Q0"":""Is there any way you could help move my stuff?""}","low_entitlement",1,"interaction","Is there any way you could help move my stuff?","W","Male",48,"low","interaction","EM"
"113",3,15391,"","survey-multi-choice",3,120235,"0.0-3.0",28114,"group2","",863490,"{""Q0"":""I need to see the doctor.""}","high_entitlement",6,"institution","I need to see the doctor.","D","Female",40,"high","institution","D"
"114",4,21235,"","survey-multi-choice",4,142487,"0.0-4.0",28114,"group2","",863490,"{""Q0"":""I need you to drive me to the doctor.""}","high_entitlement",10,"urgency","I need you to drive me to the doctor.","D","Female",40,"high","urgency","D"
"115",5,18323,"","survey-multi-choice",5,161826,"0.0-5.0",28114,"group2","",863490,"{""Q0"":""My cat is stuck in a tree.""}","low_entitlement",5,"institution","My cat is stuck in a tree.","IS","Female",40,"low","institution","IS"
"116",7,17065,"","survey-multi-choice",7,199842,"0.0-7.0",28114,"group2","",863490,"{""Q0"":""Can I stay with you tonight?""}","low_entitlement",9,"urgency","Can I stay with you tonight?","M","Female",40,"low","urgency","M"
"117",8,22379,"","survey-multi-choice",8,223234,"0.0-8.0",28114,"group2","",863490,"{""Q0"":""Could you help me move this stuff into my apartment?""}","low_entitlement",1,"interaction","Could you help me move this stuff into my apartment?","M","Female",40,"low","interaction","M"
"118",9,8424,"","survey-multi-choice",9,232675,"0.0-9.0",28114,"group2","",863490,"{""Q0"":""Can you pick me up at the airport?""}","high_entitlement",4,"relationship","Can you pick me up at the airport?","M","Female",40,"high","relationship","M"
"119",10,9212,"","survey-multi-choice",10,242898,"0.0-10.0",28114,"group2","",863490,"{""Q0"":""Can you help me out with the rent?""}","high_entitlement",2,"interaction","Can you help me out with the rent?","M","Female",40,"high","interaction","M"
"120",11,34323,"","survey-multi-choice",11,278236,"0.0-11.0",28114,"group2","",863490,"{""Q0"":""I'm not sure I have time to compile these reports.""}","low_entitlement",3,"relationship","I'm not sure I have time to compile these reports.","IS","Female",40,"low","relationship","IS"
"121",2,185051,"","survey-multi-choice",2,248618,"0.0-2.0",28542,"group2","",428664,"{""Q0"":""I need you to compile these reports.""}","low_entitlement",3,"relationship","I need you to compile these reports.","D","Male",25,"low","relationship","D"
"122",3,29720,"","survey-multi-choice",3,279344,"0.0-3.0",28542,"group2","",428664,"{""Q0"":""Is there any way you could help move my stuff?""}","low_entitlement",1,"interaction","Is there any way you could help move my stuff?","W","Male",25,"low","interaction","EM"
"123",4,8307,"","survey-multi-choice",4,288656,"0.0-4.0",28542,"group2","",428664,"{""Q0"":""I need you to give me a ride home.""}","high_entitlement",4,"relationship","I need you to give me a ride home.","D","Male",25,"high","relationship","D"
"124",5,3210,"","survey-multi-choice",5,292872,"0.0-5.0",28542,"group2","",428664,"{""Q0"":""I need you to drive me to the doctor.""}","high_entitlement",10,"urgency","I need you to drive me to the doctor.","D","Male",25,"high","urgency","D"
"125",6,2706,"","survey-multi-choice",6,296583,"0.0-6.0",28542,"group2","",428664,"{""Q0"":""My cat is stuck in a tree.""}","low_entitlement",5,"institution","My cat is stuck in a tree.","IS","Male",25,"low","institution","IS"
"126",7,4146,"","survey-multi-choice",7,301736,"0.0-7.0",28542,"group2","",428664,"{""Q0"":""I need you to cover my rent this month.""}","high_entitlement",2,"interaction","I need you to cover my rent this month.","D","Male",25,"high","interaction","D"
"127",8,3570,"","survey-multi-choice",8,306312,"0.0-8.0",28542,"group2","",428664,"{""Q0"":""Can I stay with you tonight?""}","low_entitlement",9,"urgency","Can I stay with you tonight?","M","Male",25,"low","urgency","M"
"128",10,3202,"","survey-multi-choice",10,317792,"0.0-10.0",28542,"group2","",428664,"{""Q0"":""I was wondering if I could see the doctor?""}","high_entitlement",6,"institution","I was wondering if I could see the doctor?","W","Male",25,"high","institution","EM"
"129",2,23156,"","survey-multi-choice",2,96545,"0.0-2.0",32379,"group1","",321932,"{""Q0"":""Can you pick me up at the airport?""}","low_entitlement",4,"relationship","Can you pick me up at the airport?","M","Male",23,"low","relationship","M"
"130",5,18132,"","survey-multi-choice",5,142026,"0.0-5.0",32379,"group1","",321932,"{""Q0"":""There's an intruder.""}","high_entitlement",5,"institution","There's an intruder.","IS","Male",23,"high","institution","IS"
"131",6,33275,"","survey-multi-choice",6,176308,"0.0-6.0",32379,"group1","",321932,"{""Q0"":""Can I stay with you tonight?""}","high_entitlement",9,"urgency","Can I stay with you tonight?","M","Male",23,"high","urgency","M"
"132",7,14337,"","survey-multi-choice",7,191652,"0.0-7.0",32379,"group1","",321932,"{""Q0"":""Would it be at all possible to help me out with the rent?""}","low_entitlement",2,"interaction","Would it be at all possible to help me out with the rent?","W","Male",23,"low","interaction","EM"
"133",8,28548,"","survey-multi-choice",8,221208,"0.0-8.0",32379,"group1","",321932,"{""Q0"":""I need you to compile these reports.""}","high_entitlement",3,"relationship","I need you to compile these reports.","D","Male",23,"high","relationship","D"
"134",9,32102,"","survey-multi-choice",9,254316,"0.0-9.0",32379,"group1","",321932,"{""Q0"":""Could you help me move this stuff into my apartment?""}","high_entitlement",1,"interaction","Could you help me move this stuff into my apartment?","M","Male",23,"high","interaction","M"
"135",10,7567,"","survey-multi-choice",10,262890,"0.0-10.0",32379,"group1","",321932,"{""Q0"":""Could you drive me to the doctor?""}","low_entitlement",10,"urgency","Could you drive me to the doctor?","M","Male",23,"low","urgency","M"
"136",11,11480,"","survey-multi-choice",11,275376,"0.0-11.0",32379,"group1","",321932,"{""Q0"":""Can I see the doctor?""}","low_entitlement",6,"institution","Can I see the doctor?","M","Male",23,"low","institution","M"
"137",2,43710,"","survey-multi-choice",2,150599,"0.0-2.0",3324,"group2","",87976,"{""Q0"":""Can you pick me up at the airport?""}","high_entitlement",4,"relationship","Can you pick me up at the airport?","M","Male",41,"high","relationship","M"
"138",3,34432,"","survey-multi-choice",3,186035,"0.0-3.0",3324,"group2","",87976,"{""Q0"":""I was wondering if I could get copies of the expense and quarterly reports?""}","low_entitlement",3,"relationship","I was wondering if I could get copies of the expense and quarterly reports?","W","Male",41,"low","relationship","EM"
"139",4,32952,"","survey-multi-choice",4,219996,"0.0-4.0",3324,"group2","",87976,"{""Q0"":""Could you drive me to the doctor?""}","high_entitlement",10,"urgency","Could you drive me to the doctor?","M","Male",41,"high","urgency","M"
"140",5,23418,"","survey-multi-choice",5,244421,"0.0-5.0",3324,"group2","",87976,"{""Q0"":""Would it be at all possible for me to stay with you tonight?""}","low_entitlement",9,"urgency","Would it be at all possible for me to stay with you tonight?","W","Male",41,"low","urgency","EM"
"141",6,58860,"","survey-multi-choice",6,304291,"0.0-6.0",3324,"group2","",87976,"{""Q0"":""I need to see the doctor.""}","high_entitlement",6,"institution","I need to see the doctor.","D","Male",41,"high","institution","D"
"142",7,23034,"","survey-multi-choice",7,328331,"0.0-7.0",3324,"group2","",87976,"{""Q0"":""Can you help me out with the rent?""}","high_entitlement",2,"interaction","Can you help me out with the rent?","M","Male",41,"high","interaction","M"
"143",8,32151,"","survey-multi-choice",8,361491,"0.0-8.0",3324,"group2","",87976,"{""Q0"":""Could you help me move this stuff into my apartment?""}","low_entitlement",1,"interaction","Could you help me move this stuff into my apartment?","M","Male",41,"low","interaction","M"
"144",10,19160,"","survey-multi-choice",10,403235,"0.0-10.0",3324,"group2","",87976,"{""Q0"":""My cat is stuck in a tree.""}","low_entitlement",5,"institution","My cat is stuck in a tree.","IS","Male",41,"low","institution","IS"
"145",2,18698,"","survey-multi-choice",2,199884,"0.0-2.0",33903,"group1","",908254,"{""Q0"":""Can you pick me up at the airport?""}","low_entitlement",4,"relationship","Can you pick me up at the airport?","M","Female",32,"low","relationship","M"
"146",3,10668,"","survey-multi-choice",3,211555,"0.0-3.0",33903,"group1","",908254,"{""Q0"":""Can I see the doctor?""}","low_entitlement",6,"institution","Can I see the doctor?","M","Female",32,"low","institution","M"
"147",4,17644,"","survey-multi-choice",4,230203,"0.0-4.0",33903,"group1","",908254,"{""Q0"":""Could you please send help?""}","high_entitlement",5,"institution","Could you please send help?","M","Female",32,"high","institution","M"
"148",5,3949,"","survey-multi-choice",5,235154,"0.0-5.0",33903,"group1","",908254,"{""Q0"":""Can I stay with you tonight?""}","high_entitlement",9,"urgency","Can I stay with you tonight?","M","Female",32,"high","urgency","M"
"149",6,3510,"","survey-multi-choice",6,239667,"0.0-6.0",33903,"group1","",908254,"{""Q0"":""Can you help me out with the rent?""}","low_entitlement",2,"interaction","Can you help me out with the rent?","M","Female",32,"low","interaction","M"
"150",7,2868,"","survey-multi-choice",7,243539,"0.0-7.0",33903,"group1","",908254,"{""Q0"":""Could you drive me to the doctor?""}","low_entitlement",10,"urgency","Could you drive me to the doctor?","M","Female",32,"low","urgency","M"
"151",8,2709,"","survey-multi-choice",8,247251,"0.0-8.0",33903,"group1","",908254,"{""Q0"":""Can you get me the copies of the expense and quarterly reports?""}","high_entitlement",3,"relationship","Can you get me the copies of the expense and quarterly reports?","M","Female",32,"high","relationship","M"
"152",11,2597,"","survey-multi-choice",11,261339,"0.0-11.0",33903,"group1","",908254,"{""Q0"":""Could you help me move this stuff into my apartment?""}","high_entitlement",1,"interaction","Could you help me move this stuff into my apartment?","M","Female",32,"high","interaction","M"
"153",2,9032,"","survey-multi-choice",2,25959,"0.0-2.0",34496,"group1","",383133,"{""Q0"":""I was wondering if I could see the doctor?""}","low_entitlement",6,"institution","I was wondering if I could see the doctor?","W","Male",27,"low","institution","EM"
"154",3,3746,"","survey-multi-choice",3,30745,"0.0-3.0",34496,"group1","",383133,"{""Q0"":""Would it be at all possible to help me out with the rent?""}","low_entitlement",2,"interaction","Would it be at all possible to help me out with the rent?","W","Male",27,"low","interaction","EM"
"155",4,6164,"","survey-multi-choice",4,37957,"0.0-4.0",34496,"group1","",383133,"{""Q0"":""Is there any way you'd be able to pick me up at the airport?""}","low_entitlement",4,"relationship","Is there any way you'd be able to pick me up at the airport?","W","Male",27,"low","relationship","EM"
"156",6,3040,"","survey-multi-choice",6,46568,"0.0-6.0",34496,"group1","",383133,"{""Q0"":""Would it be at all possible to send help?""}","high_entitlement",5,"institution","Would it be at all possible to send help?","W","Male",27,"high","institution","EM"
"157",8,4141,"","survey-multi-choice",8,60626,"0.0-8.0",34496,"group1","",383133,"{""Q0"":""Could you drive me to the doctor?""}","low_entitlement",10,"urgency","Could you drive me to the doctor?","M","Male",27,"low","urgency","M"
"158",9,2991,"","survey-multi-choice",9,64668,"0.0-9.0",34496,"group1","",383133,"{""Q0"":""Would it be at all possible for me to stay with you tonight?""}","high_entitlement",9,"urgency","Would it be at all possible for me to stay with you tonight?","W","Male",27,"high","urgency","EM"
"159",10,6278,"","survey-multi-choice",10,71986,"0.0-10.0",34496,"group1","",383133,"{""Q0"":""Can you get me the copies of the expense and quarterly reports?""}","high_entitlement",3,"relationship","Can you get me the copies of the expense and quarterly reports?","M","Male",27,"high","relationship","M"
"160",11,2340,"","survey-multi-choice",11,75378,"0.0-11.0",34496,"group1","",383133,"{""Q0"":""Could you help me move this stuff into my apartment?""}","high_entitlement",1,"interaction","Could you help me move this stuff into my apartment?","M","Male",27,"high","interaction","M"
"161",2,18619,"","survey-multi-choice",2,177355,"0.0-2.0",36333,"group2","",287585,"{""Q0"":""Can you pick me up at the airport?""}","high_entitlement",4,"relationship","Can you pick me up at the airport?","M","Female",42,"high","relationship","M"
"162",3,22091,"","survey-multi-choice",3,200465,"0.0-3.0",36333,"group2","",287585,"{""Q0"":""My cat is stuck in a tree.""}","low_entitlement",5,"institution","My cat is stuck in a tree.","IS","Female",42,"low","institution","IS"
"163",4,17366,"","survey-multi-choice",4,218845,"0.0-4.0",36333,"group2","",287585,"{""Q0"":""Would it be at all possible for me to stay with you tonight?""}","low_entitlement",9,"urgency","Would it be at all possible for me to stay with you tonight?","W","Female",42,"low","urgency","EM"
"164",5,32517,"","survey-multi-choice",5,252386,"0.0-5.0",36333,"group2","",287585,"{""Q0"":""Could you drive me to the doctor?""}","high_entitlement",10,"urgency","Could you drive me to the doctor?","M","Female",42,"high","urgency","M"
"165",6,30825,"","survey-multi-choice",6,284227,"0.0-6.0",36333,"group2","",287585,"{""Q0"":""Can you help me out with the rent?""}","high_entitlement",2,"interaction","Can you help me out with the rent?","M","Female",42,"high","interaction","M"
"166",8,24857,"","survey-multi-choice",8,336583,"0.0-8.0",36333,"group2","",287585,"{""Q0"":""Can you get me the copies of the expense and quarterly reports?""}","low_entitlement",3,"relationship","Can you get me the copies of the expense and quarterly reports?","M","Female",42,"low","relationship","M"
"167",9,37698,"","survey-multi-choice",9,375297,"0.0-9.0",36333,"group2","",287585,"{""Q0"":""Could you help me move this stuff into my apartment?""}","low_entitlement",1,"interaction","Could you help me move this stuff into my apartment?","M","Female",42,"low","interaction","M"
"168",11,17192,"","survey-multi-choice",11,404267,"0.0-11.0",36333,"group2","",287585,"{""Q0"":""I can't breathe.""}","high_entitlement",6,"institution","I can't breathe.","IS","Female",42,"high","institution","IS"
"169",2,7986,"","survey-multi-choice",2,50678,"0.0-2.0",40239,"group2","",936082,"{""Q0"":""I need you to drive me to the doctor.""}","high_entitlement",10,"urgency","I need you to drive me to the doctor.","D","Female",56,"high","urgency","D"
"170",4,20988,"","survey-multi-choice",4,84956,"0.0-4.0",40239,"group2","",936082,"{""Q0"":""I was wondering if I could see the doctor?""}","high_entitlement",6,"institution","I was wondering if I could see the doctor?","W","Female",56,"high","institution","EM"
"171",5,4547,"","survey-multi-choice",5,90508,"0.0-5.0",40239,"group2","",936082,"{""Q0"":""I was wondering if I could get copies of the expense and quarterly reports?""}","low_entitlement",3,"relationship","I was wondering if I could get copies of the expense and quarterly reports?","W","Female",56,"low","relationship","EM"
"172",6,12091,"","survey-multi-choice",6,103604,"0.0-6.0",40239,"group2","",936082,"{""Q0"":""Send someone to help immediately.""}","low_entitlement",5,"institution","Send someone to help immediately.","D","Female",56,"low","institution","D"
"173",7,13741,"","survey-multi-choice",7,118348,"0.0-7.0",40239,"group2","",936082,"{""Q0"":""I don't have anywhere to sleep.""}","low_entitlement",9,"urgency","I don't have anywhere to sleep.","IS","Female",56,"low","urgency","IS"
"174",9,31946,"","survey-multi-choice",9,158614,"0.0-9.0",40239,"group2","",936082,"{""Q0"":""Is there any way you could help move my stuff?""}","low_entitlement",1,"interaction","Is there any way you could help move my stuff?","W","Female",56,"low","interaction","EM"
"175",10,13650,"","survey-multi-choice",10,173269,"0.0-10.0",40239,"group2","",936082,"{""Q0"":""I'm short on cash this month, and rent is coming up.""}","high_entitlement",2,"interaction","I'm short on cash this month, and rent is coming up.","IS","Female",56,"high","interaction","IS"
"176",11,19555,"","survey-multi-choice",11,193830,"0.0-11.0",40239,"group2","",936082,"{""Q0"":""I need you to give me a ride home.""}","high_entitlement",4,"relationship","I need you to give me a ride home.","D","Female",56,"high","relationship","D"
"177",3,27882,"","survey-multi-choice",3,130649,"0.0-3.0",42017,"group1","",528976,"{""Q0"":""Could you help me move this stuff into my apartment?""}","high_entitlement",1,"interaction","Could you help me move this stuff into my apartment?","M","Female",37,"high","interaction","M"
"178",4,17666,"","survey-multi-choice",4,149324,"0.0-4.0",42017,"group1","",528976,"{""Q0"":""Would it be at all possible to help me out with the rent?""}","low_entitlement",2,"interaction","Would it be at all possible to help me out with the rent?","W","Female",37,"low","interaction","EM"
"179",5,18160,"","survey-multi-choice",5,168504,"0.0-5.0",42017,"group1","",528976,"{""Q0"":""Can you get me the copies of the expense and quarterly reports?""}","high_entitlement",3,"relationship","Can you get me the copies of the expense and quarterly reports?","M","Female",37,"high","relationship","M"
"180",6,16471,"","survey-multi-choice",6,185987,"0.0-6.0",42017,"group1","",528976,"{""Q0"":""Is there any way you'd be able to pick me up at the airport?""}","low_entitlement",4,"relationship","Is there any way you'd be able to pick me up at the airport?","W","Female",37,"low","relationship","EM"
"181",7,13876,"","survey-multi-choice",7,200872,"0.0-7.0",42017,"group1","",528976,"{""Q0"":""Would it be at all possible for me to stay with you tonight?""}","high_entitlement",9,"urgency","Would it be at all possible for me to stay with you tonight?","W","Female",37,"high","urgency","EM"
"182",9,30132,"","survey-multi-choice",9,246750,"0.0-9.0",42017,"group1","",528976,"{""Q0"":""There's an intruder.""}","high_entitlement",5,"institution","There's an intruder.","IS","Female",37,"high","institution","IS"
"183",10,21740,"","survey-multi-choice",10,269501,"0.0-10.0",42017,"group1","",528976,"{""Q0"":""Could you drive me to the doctor?""}","low_entitlement",10,"urgency","Could you drive me to the doctor?","M","Female",37,"low","urgency","M"
"184",11,11891,"","survey-multi-choice",11,282401,"0.0-11.0",42017,"group1","",528976,"{""Q0"":""I need to see the doctor.""}","low_entitlement",6,"institution","I need to see the doctor.","D","Female",37,"low","institution","D"
"185",2,20390,"","survey-multi-choice",2,43504,"0.0-2.0",42146,"group2","",255139,"{""Q0"":""Can you get me the copies of the expense and quarterly reports?""}","low_entitlement",3,"relationship","Can you get me the copies of the expense and quarterly reports?","M","Female",34,"low","relationship","M"
"186",4,9365,"","survey-multi-choice",4,71383,"0.0-4.0",42146,"group2","",255139,"{""Q0"":""Can I stay with you tonight?""}","low_entitlement",9,"urgency","Can I stay with you tonight?","M","Female",34,"low","urgency","M"
"187",5,25844,"","survey-multi-choice",5,98239,"0.0-5.0",42146,"group2","",255139,"{""Q0"":""Could you help me move this stuff into my apartment?""}","low_entitlement",1,"interaction","Could you help me move this stuff into my apartment?","M","Female",34,"low","interaction","M"
"188",6,13749,"","survey-multi-choice",6,113001,"0.0-6.0",42146,"group2","",255139,"{""Q0"":""Would it be at all possible to help me out with the rent?""}","high_entitlement",2,"interaction","Would it be at all possible to help me out with the rent?","W","Female",34,"high","interaction","EM"
"189",7,10071,"","survey-multi-choice",7,124085,"0.0-7.0",42146,"group2","",255139,"{""Q0"":""Could you drive me to the doctor?""}","high_entitlement",10,"urgency","Could you drive me to the doctor?","M","Female",34,"high","urgency","M"
"190",8,16052,"","survey-multi-choice",8,141158,"0.0-8.0",42146,"group2","",255139,"{""Q0"":""I need you to give me a ride home.""}","high_entitlement",4,"relationship","I need you to give me a ride home.","D","Female",34,"high","relationship","D"
"191",9,11625,"","survey-multi-choice",9,153798,"0.0-9.0",42146,"group2","",255139,"{""Q0"":""I need to see the doctor.""}","high_entitlement",6,"institution","I need to see the doctor.","D","Female",34,"high","institution","D"
"192",10,12451,"","survey-multi-choice",10,167261,"0.0-10.0",42146,"group2","",255139,"{""Q0"":""My cat is stuck in a tree.""}","low_entitlement",5,"institution","My cat is stuck in a tree.","IS","Female",34,"low","institution","IS"
"193",2,36232,"","survey-multi-choice",2,77232,"0.0-2.0",42306,"group1","",45738,"{""Q0"":""Can you get me the copies of the expense and quarterly reports?""}","high_entitlement",3,"relationship","Can you get me the copies of the expense and quarterly reports?","M","Female",49,"high","relationship","M"
"194",3,37290,"","survey-multi-choice",3,115533,"0.0-3.0",42306,"group1","",45738,"{""Q0"":""Could you drive me to the doctor?""}","low_entitlement",10,"urgency","Could you drive me to the doctor?","M","Female",49,"low","urgency","M"
"195",4,12951,"","survey-multi-choice",4,129492,"0.0-4.0",42306,"group1","",45738,"{""Q0"":""Send someone to help immediately.""}","high_entitlement",5,"institution","Send someone to help immediately.","D","Female",49,"high","institution","D"
"196",6,40867,"","survey-multi-choice",6,180675,"0.0-6.0",42306,"group1","",45738,"{""Q0"":""I was wondering if I could see the doctor?""}","low_entitlement",6,"institution","I was wondering if I could see the doctor?","W","Female",49,"low","institution","EM"
"197",7,14568,"","survey-multi-choice",7,196261,"0.0-7.0",42306,"group1","",45738,"{""Q0"":""Can I stay with you tonight?""}","high_entitlement",9,"urgency","Can I stay with you tonight?","M","Female",49,"high","urgency","M"
"198",8,11865,"","survey-multi-choice",8,209138,"0.0-8.0",42306,"group1","",45738,"{""Q0"":""Would it be at all possible to help me out with the rent?""}","low_entitlement",2,"interaction","Would it be at all possible to help me out with the rent?","W","Female",49,"low","interaction","EM"
"199",10,46040,"","survey-multi-choice",10,265888,"0.0-10.0",42306,"group1","",45738,"{""Q0"":""Is there any way you'd be able to pick me up at the airport?""}","low_entitlement",4,"relationship","Is there any way you'd be able to pick me up at the airport?","W","Female",49,"low","relationship","EM"
"200",11,12548,"","survey-multi-choice",11,279457,"0.0-11.0",42306,"group1","",45738,"{""Q0"":""Could you help me move this stuff into my apartment?""}","high_entitlement",1,"interaction","Could you help me move this stuff into my apartment?","M","Female",49,"high","interaction","M"
"201",4,18895,"","survey-multi-choice",4,102917,"0.0-4.0",43477,"group2","",189924,"{""Q0"":""My cat is stuck in a tree.""}","low_entitlement",5,"institution","My cat is stuck in a tree.","IS","Male",26,"low","institution","IS"
"202",5,16952,"","survey-multi-choice",5,120876,"0.0-5.0",43477,"group2","",189924,"{""Q0"":""I need you to give me a ride home.""}","high_entitlement",4,"relationship","I need you to give me a ride home.","D","Male",26,"high","relationship","D"
"203",6,11687,"","survey-multi-choice",6,133572,"0.0-6.0",43477,"group2","",189924,"{""Q0"":""Can you help me out with the rent?""}","high_entitlement",2,"interaction","Can you help me out with the rent?","M","Male",26,"high","interaction","M"
"204",7,18056,"","survey-multi-choice",7,152636,"0.0-7.0",43477,"group2","",189924,"{""Q0"":""I need you to drive me to the doctor.""}","high_entitlement",10,"urgency","I need you to drive me to the doctor.","D","Male",26,"high","urgency","D"
"205",8,15711,"","survey-multi-choice",8,169348,"0.0-8.0",43477,"group2","",189924,"{""Q0"":""I need you to host me.""}","low_entitlement",9,"urgency","I need you to host me.","D","Male",26,"low","urgency","D"
"206",9,19513,"","survey-multi-choice",9,189869,"0.0-9.0",43477,"group2","",189924,"{""Q0"":""Could you help me move this stuff into my apartment?""}","low_entitlement",1,"interaction","Could you help me move this stuff into my apartment?","M","Male",26,"low","interaction","M"
"207",10,14409,"","survey-multi-choice",10,205285,"0.0-10.0",43477,"group2","",189924,"{""Q0"":""Can you get me the copies of the expense and quarterly reports?""}","low_entitlement",3,"relationship","Can you get me the copies of the expense and quarterly reports?","M","Male",26,"low","relationship","M"
"208",11,20974,"","survey-multi-choice",11,227268,"0.0-11.0",43477,"group2","",189924,"{""Q0"":""I need to see the doctor.""}","high_entitlement",6,"institution","I need to see the doctor.","D","Male",26,"high","institution","D"
"209",2,21513,"","survey-multi-choice",2,37883,"0.0-2.0",44710,"group2","",800218,"{""Q0"":""I need you to drive me to the doctor.""}","high_entitlement",10,"urgency","I need you to drive me to the doctor.","D","Male",24,"high","urgency","D"
"210",3,17154,"","survey-multi-choice",3,56061,"0.0-3.0",44710,"group2","",800218,"{""Q0"":""Would it be at all possible for me to stay with you tonight?""}","low_entitlement",9,"urgency","Would it be at all possible for me to stay with you tonight?","W","Male",24,"low","urgency","EM"
"211",4,10560,"","survey-multi-choice",4,67632,"0.0-4.0",44710,"group2","",800218,"{""Q0"":""Send someone to help immediately.""}","low_entitlement",5,"institution","Send someone to help immediately.","D","Male",24,"low","institution","D"
"212",5,3357,"","survey-multi-choice",5,72012,"0.0-5.0",44710,"group2","",800218,"{""Q0"":""I was wondering if I could get copies of the expense and quarterly reports?""}","low_entitlement",3,"relationship","I was wondering if I could get copies of the expense and quarterly reports?","W","Male",24,"low","relationship","EM"
"213",6,3580,"","survey-multi-choice",6,76622,"0.0-6.0",44710,"group2","",800218,"{""Q0"":""Would it be at all possible to help me out with the rent?""}","high_entitlement",2,"interaction","Would it be at all possible to help me out with the rent?","W","Male",24,"high","interaction","EM"
"214",8,8407,"","survey-multi-choice",8,90750,"0.0-8.0",44710,"group2","",800218,"{""Q0"":""I'm stuck at the airport.""}","high_entitlement",4,"relationship","I'm stuck at the airport.","IS","Male",24,"high","relationship","IS"
"215",9,5446,"","survey-multi-choice",9,97223,"0.0-9.0",44710,"group2","",800218,"{""Q0"":""Could you help me move this stuff into my apartment?""}","low_entitlement",1,"interaction","Could you help me move this stuff into my apartment?","M","Male",24,"low","interaction","M"
"216",11,5634,"","survey-multi-choice",11,115029,"0.0-11.0",44710,"group2","",800218,"{""Q0"":""I was wondering if I could see the doctor?""}","high_entitlement",6,"institution","I was wondering if I could see the doctor?","W","Male",24,"high","institution","EM"
"217",2,8802,"","survey-multi-choice",2,193061,"0.0-2.0",45177,"group2","",9984,"{""Q0"":""Is there any way you'd be able to pick me up at the airport?""}","high_entitlement",4,"relationship","Is there any way you'd be able to pick me up at the airport?","W","Male",29,"high","relationship","EM"
"218",3,7788,"","survey-multi-choice",3,201852,"0.0-3.0",45177,"group2","",9984,"{""Q0"":""I was wondering if you could give me a ride to the doctor?""}","high_entitlement",10,"urgency","I was wondering if you could give me a ride to the doctor?","W","Male",29,"high","urgency","EM"
"219",4,6466,"","survey-multi-choice",4,209324,"0.0-4.0",45177,"group2","",9984,"{""Q0"":""Would it be at all possible to help me out with the rent?""}","high_entitlement",2,"interaction","Would it be at all possible to help me out with the rent?","W","Male",29,"high","interaction","EM"
"220",5,3931,"","survey-multi-choice",5,214260,"0.0-5.0",45177,"group2","",9984,"{""Q0"":""Would it be at all possible for me to stay with you tonight?""}","low_entitlement",9,"urgency","Would it be at all possible for me to stay with you tonight?","W","Male",29,"low","urgency","EM"
"221",6,3649,"","survey-multi-choice",6,218916,"0.0-6.0",45177,"group2","",9984,"{""Q0"":""Is there any way you could help move my stuff?""}","low_entitlement",1,"interaction","Is there any way you could help move my stuff?","W","Male",29,"low","interaction","EM"
"222",7,3722,"","survey-multi-choice",7,223644,"0.0-7.0",45177,"group2","",9984,"{""Q0"":""I was wondering if I could get copies of the expense and quarterly reports?""}","low_entitlement",3,"relationship","I was wondering if I could get copies of the expense and quarterly reports?","W","Male",29,"low","relationship","EM"
"223",9,7210,"","survey-multi-choice",9,238043,"0.0-9.0",45177,"group2","",9984,"{""Q0"":""Can I see the doctor?""}","high_entitlement",6,"institution","Can I see the doctor?","M","Male",29,"high","institution","M"
"224",10,3305,"","survey-multi-choice",10,242355,"0.0-10.0",45177,"group2","",9984,"{""Q0"":""Would it be at all possible to send help?""}","low_entitlement",5,"institution","Would it be at all possible to send help?","W","Male",29,"low","institution","EM"
"225",2,22310,"","survey-multi-choice",2,48212,"0.0-2.0",45610,"group2","",30502,"{""Q0"":""I need you to drive me to the doctor.""}","high_entitlement",10,"urgency","I need you to drive me to the doctor.","D","Female",21,"high","urgency","D"
"226",3,6908,"","survey-multi-choice",3,56128,"0.0-3.0",45610,"group2","",30502,"{""Q0"":""Is there any way you'd be able to pick me up at the airport?""}","high_entitlement",4,"relationship","Is there any way you'd be able to pick me up at the airport?","W","Female",21,"high","relationship","EM"
"227",5,10650,"","survey-multi-choice",5,75627,"0.0-5.0",45610,"group2","",30502,"{""Q0"":""Would it be at all possible to help me out with the rent?""}","high_entitlement",2,"interaction","Would it be at all possible to help me out with the rent?","W","Female",21,"high","interaction","EM"
"228",7,12483,"","survey-multi-choice",7,100388,"0.0-7.0",45610,"group2","",30502,"{""Q0"":""I can't breathe.""}","high_entitlement",6,"institution","I can't breathe.","IS","Female",21,"high","institution","IS"
"229",8,6971,"","survey-multi-choice",8,108366,"0.0-8.0",45610,"group2","",30502,"{""Q0"":""Could you please send help?""}","low_entitlement",5,"institution","Could you please send help?","M","Female",21,"low","institution","M"
"230",9,7339,"","survey-multi-choice",9,116711,"0.0-9.0",45610,"group2","",30502,"{""Q0"":""Would it be at all possible for me to stay with you tonight?""}","low_entitlement",9,"urgency","Would it be at all possible for me to stay with you tonight?","W","Female",21,"low","urgency","EM"
"231",10,11632,"","survey-multi-choice",10,129351,"0.0-10.0",45610,"group2","",30502,"{""Q0"":""Is there any way you could help move my stuff?""}","low_entitlement",1,"interaction","Is there any way you could help move my stuff?","W","Female",21,"low","interaction","EM"
"232",11,7975,"","survey-multi-choice",11,138332,"0.0-11.0",45610,"group2","",30502,"{""Q0"":""I was wondering if I could get copies of the expense and quarterly reports?""}","low_entitlement",3,"relationship","I was wondering if I could get copies of the expense and quarterly reports?","W","Female",21,"low","relationship","EM"
"233",2,34366,"","survey-multi-choice",2,60965,"0.0-2.0",45852,"group1","",460751,"{""Q0"":""I need you to give me a ride home.""}","low_entitlement",4,"relationship","I need you to give me a ride home.","D","Male",27,"low","relationship","D"
"234",3,16845,"","survey-multi-choice",3,78817,"0.0-3.0",45852,"group1","",460751,"{""Q0"":""I need you to compile these reports.""}","high_entitlement",3,"relationship","I need you to compile these reports.","D","Male",27,"high","relationship","D"
"235",4,5730,"","survey-multi-choice",4,85554,"0.0-4.0",45852,"group1","",460751,"{""Q0"":""I need you to host me.""}","high_entitlement",9,"urgency","I need you to host me.","D","Male",27,"high","urgency","D"
"236",5,6248,"","survey-multi-choice",5,92809,"0.0-5.0",45852,"group1","",460751,"{""Q0"":""Hey, help me move my stuff.""}","high_entitlement",1,"interaction","Hey, help me move my stuff.","D","Male",27,"high","interaction","D"
"237",6,11985,"","survey-multi-choice",6,105801,"0.0-6.0",45852,"group1","",460751,"{""Q0"":""Would it be at all possible to send help?""}","high_entitlement",5,"institution","Would it be at all possible to send help?","W","Male",27,"high","institution","EM"
"238",8,2295,"","survey-multi-choice",8,112169,"0.0-8.0",45852,"group1","",460751,"{""Q0"":""I was wondering if you could give me a ride to the doctor?""}","low_entitlement",10,"urgency","I was wondering if you could give me a ride to the doctor?","W","Male",27,"low","urgency","EM"
"239",10,17390,"","survey-multi-choice",10,136970,"0.0-10.0",45852,"group1","",460751,"{""Q0"":""I need you to cover my rent this month.""}","low_entitlement",2,"interaction","I need you to cover my rent this month.","D","Male",27,"low","interaction","D"
"240",11,1977,"","survey-multi-choice",11,139955,"0.0-11.0",45852,"group1","",460751,"{""Q0"":""I haven't had a physical this year.""}","low_entitlement",6,"institution","I haven't had a physical this year.","IS","Male",27,"low","institution","IS"
"241",2,18749,"","survey-multi-choice",2,51288,"0.0-2.0",46162,"group1","",359373,"{""Q0"":""Send someone to help immediately.""}","high_entitlement",5,"institution","Send someone to help immediately.","D","Male",35,"high","institution","D"
"242",4,16383,"","survey-multi-choice",4,77744,"0.0-4.0",46162,"group1","",359373,"{""Q0"":""Would it be at all possible for me to stay with you tonight?""}","high_entitlement",9,"urgency","Would it be at all possible for me to stay with you tonight?","W","Male",35,"high","urgency","EM"
"243",5,11787,"","survey-multi-choice",5,90544,"0.0-5.0",46162,"group1","",359373,"{""Q0"":""I was wondering if I could see the doctor?""}","low_entitlement",6,"institution","I was wondering if I could see the doctor?","W","Male",35,"low","institution","EM"
"244",6,7857,"","survey-multi-choice",6,99416,"0.0-6.0",46162,"group1","",359373,"{""Q0"":""I was wondering if you could give me a ride to the doctor?""}","low_entitlement",10,"urgency","I was wondering if you could give me a ride to the doctor?","W","Male",35,"low","urgency","EM"
"245",7,10370,"","survey-multi-choice",7,110804,"0.0-7.0",46162,"group1","",359373,"{""Q0"":""Is there any way you could help move my stuff?""}","high_entitlement",1,"interaction","Is there any way you could help move my stuff?","W","Male",35,"high","interaction","EM"
"246",8,6149,"","survey-multi-choice",8,117968,"0.0-8.0",46162,"group1","",359373,"{""Q0"":""Is there any way you'd be able to pick me up at the airport?""}","low_entitlement",4,"relationship","Is there any way you'd be able to pick me up at the airport?","W","Male",35,"low","relationship","EM"
"247",9,8249,"","survey-multi-choice",9,127234,"0.0-9.0",46162,"group1","",359373,"{""Q0"":""Would it be at all possible to help me out with the rent?""}","low_entitlement",2,"interaction","Would it be at all possible to help me out with the rent?","W","Male",35,"low","interaction","EM"
"248",11,9191,"","survey-multi-choice",11,144902,"0.0-11.0",46162,"group1","",359373,"{""Q0"":""Can you get me the copies of the expense and quarterly reports?""}","high_entitlement",3,"relationship","Can you get me the copies of the expense and quarterly reports?","M","Male",35,"high","relationship","M"
"249",2,99516,"","survey-multi-choice",2,139927,"0.0-2.0",48563,"group2","",496332,"{""Q0"":""Would it be at all possible for me to stay with you tonight?""}","low_entitlement",9,"urgency","Would it be at all possible for me to stay with you tonight?","W","Male",25,"low","urgency","EM"
"250",3,10059,"","survey-multi-choice",3,150993,"0.0-3.0",48563,"group2","",496332,"{""Q0"":""My cat is stuck in a tree.""}","low_entitlement",5,"institution","My cat is stuck in a tree.","IS","Male",25,"low","institution","IS"
"251",4,67088,"","survey-multi-choice",4,219087,"0.0-4.0",48563,"group2","",496332,"{""Q0"":""Is there any way you'd be able to pick me up at the airport?""}","high_entitlement",4,"relationship","Is there any way you'd be able to pick me up at the airport?","W","Male",25,"high","relationship","EM"
"252",5,14964,"","survey-multi-choice",5,235059,"0.0-5.0",48563,"group2","",496332,"{""Q0"":""Is there any way you could help move my stuff?""}","low_entitlement",1,"interaction","Is there any way you could help move my stuff?","W","Male",25,"low","interaction","EM"
"253",6,30288,"","survey-multi-choice",6,266353,"0.0-6.0",48563,"group2","",496332,"{""Q0"":""I need to see the doctor.""}","high_entitlement",6,"institution","I need to see the doctor.","D","Male",25,"high","institution","D"
"254",8,42360,"","survey-multi-choice",8,370869,"0.0-8.0",48563,"group2","",496332,"{""Q0"":""I need you to drive me to the doctor.""}","high_entitlement",10,"urgency","I need you to drive me to the doctor.","D","Male",25,"high","urgency","D"
"255",9,19887,"","survey-multi-choice",9,391766,"0.0-9.0",48563,"group2","",496332,"{""Q0"":""Can you help me out with the rent?""}","high_entitlement",2,"interaction","Can you help me out with the rent?","M","Male",25,"high","interaction","M"
"256",10,45348,"","survey-multi-choice",10,438120,"0.0-10.0",48563,"group2","",496332,"{""Q0"":""Can you get me the copies of the expense and quarterly reports?""}","low_entitlement",3,"relationship","Can you get me the copies of the expense and quarterly reports?","M","Male",25,"low","relationship","M"
"257",3,23677,"","survey-multi-choice",3,125864,"0.0-3.0",50863,"group2","",272102,"{""Q0"":""Would it be at all possible to help me out with the rent?""}","high_entitlement",2,"interaction","Would it be at all possible to help me out with the rent?","W","Male",23,"high","interaction","EM"
"258",4,34268,"","survey-multi-choice",4,161136,"0.0-4.0",50863,"group2","",272102,"{""Q0"":""Could you help me move this stuff into my apartment?""}","low_entitlement",1,"interaction","Could you help me move this stuff into my apartment?","M","Male",23,"low","interaction","M"
"259",6,26340,"","survey-multi-choice",6,201033,"0.0-6.0",50863,"group2","",272102,"{""Q0"":""I was wondering if I could get copies of the expense and quarterly reports?""}","low_entitlement",3,"relationship","I was wondering if I could get copies of the expense and quarterly reports?","W","Male",23,"low","relationship","EM"
"260",7,22709,"","survey-multi-choice",7,224745,"0.0-7.0",50863,"group2","",272102,"{""Q0"":""I need you to drive me to the doctor.""}","high_entitlement",10,"urgency","I need you to drive me to the doctor.","D","Male",23,"high","urgency","D"
"261",8,16907,"","survey-multi-choice",8,242657,"0.0-8.0",50863,"group2","",272102,"{""Q0"":""Could you please send help?""}","low_entitlement",5,"institution","Could you please send help?","M","Male",23,"low","institution","M"
"262",9,15797,"","survey-multi-choice",9,259457,"0.0-9.0",50863,"group2","",272102,"{""Q0"":""Is there any way you'd be able to pick me up at the airport?""}","high_entitlement",4,"relationship","Is there any way you'd be able to pick me up at the airport?","W","Male",23,"high","relationship","EM"
"263",10,13119,"","survey-multi-choice",10,273578,"0.0-10.0",50863,"group2","",272102,"{""Q0"":""Would it be at all possible for me to stay with you tonight?""}","low_entitlement",9,"urgency","Would it be at all possible for me to stay with you tonight?","W","Male",23,"low","urgency","EM"
"264",11,19255,"","survey-multi-choice",11,293834,"0.0-11.0",50863,"group2","",272102,"{""Q0"":""I need to see the doctor.""}","high_entitlement",6,"institution","I need to see the doctor.","D","Male",23,"high","institution","D"
"265",2,27460,"","survey-multi-choice",2,79260,"0.0-2.0",5514,"group2","A3Q0XAGQ7TD7MP",880405,"{""Q0"":""I was wondering if I could get copies of the expense and quarterly reports?""}","low_entitlement",3,"relationship","I was wondering if I could get copies of the expense and quarterly reports?","W","Female",47,"low","relationship","EM"
"266",3,21931,"","survey-multi-choice",3,102228,"0.0-3.0",5514,"group2","A3Q0XAGQ7TD7MP",880405,"{""Q0"":""I was wondering if you could give me a ride to the doctor?""}","high_entitlement",10,"urgency","I was wondering if you could give me a ride to the doctor?","W","Female",47,"high","urgency","EM"
"267",4,13980,"","survey-multi-choice",4,117229,"0.0-4.0",5514,"group2","A3Q0XAGQ7TD7MP",880405,"{""Q0"":""Is there any way you'd be able to pick me up at the airport?""}","high_entitlement",4,"relationship","Is there any way you'd be able to pick me up at the airport?","W","Female",47,"high","relationship","EM"
"268",6,13094,"","survey-multi-choice",6,142184,"0.0-6.0",5514,"group2","A3Q0XAGQ7TD7MP",880405,"{""Q0"":""I need to see the doctor.""}","high_entitlement",6,"institution","I need to see the doctor.","D","Female",47,"high","institution","D"
"269",8,16471,"","survey-multi-choice",8,172791,"0.0-8.0",5514,"group2","A3Q0XAGQ7TD7MP",880405,"{""Q0"":""Could you please send help?""}","low_entitlement",5,"institution","Could you please send help?","M","Female",47,"low","institution","M"
"270",9,11836,"","survey-multi-choice",9,185642,"0.0-9.0",5514,"group2","A3Q0XAGQ7TD7MP",880405,"{""Q0"":""Would it be at all possible for me to stay with you tonight?""}","low_entitlement",9,"urgency","Would it be at all possible for me to stay with you tonight?","W","Female",47,"low","urgency","EM"
"271",10,15861,"","survey-multi-choice",10,202516,"0.0-10.0",5514,"group2","A3Q0XAGQ7TD7MP",880405,"{""Q0"":""Is there any way you could help move my stuff?""}","low_entitlement",1,"interaction","Is there any way you could help move my stuff?","W","Female",47,"low","interaction","EM"
"272",11,12241,"","survey-multi-choice",11,215775,"0.0-11.0",5514,"group2","A3Q0XAGQ7TD7MP",880405,"{""Q0"":""Would it be at all possible to help me out with the rent?""}","high_entitlement",2,"interaction","Would it be at all possible to help me out with the rent?","W","Female",47,"high","interaction","EM"
"273",3,26375,"","survey-multi-choice",3,188710,"0.0-3.0",55304,"group1","",384474,"{""Q0"":""Can I stay with you tonight?""}","high_entitlement",9,"urgency","Can I stay with you tonight?","M","Female",43,"high","urgency","M"
"274",4,43041,"","survey-multi-choice",4,232758,"0.0-4.0",55304,"group1","",384474,"{""Q0"":""Is there any way you'd be able to pick me up at the airport?""}","low_entitlement",4,"relationship","Is there any way you'd be able to pick me up at the airport?","W","Female",43,"low","relationship","EM"
"275",5,34871,"","survey-multi-choice",5,268637,"0.0-5.0",55304,"group1","",384474,"{""Q0"":""Can you get me the copies of the expense and quarterly reports?""}","high_entitlement",3,"relationship","Can you get me the copies of the expense and quarterly reports?","M","Female",43,"high","relationship","M"
"276",6,35089,"","survey-multi-choice",6,304733,"0.0-6.0",55304,"group1","",384474,"{""Q0"":""Can you help me out with the rent?""}","low_entitlement",2,"interaction","Can you help me out with the rent?","M","Female",43,"low","interaction","M"
"277",7,29161,"","survey-multi-choice",7,334901,"0.0-7.0",55304,"group1","",384474,"{""Q0"":""Hey, help me move my stuff.""}","high_entitlement",1,"interaction","Hey, help me move my stuff.","D","Female",43,"high","interaction","D"
"278",8,21058,"","survey-multi-choice",8,356967,"0.0-8.0",55304,"group1","",384474,"{""Q0"":""Could you drive me to the doctor?""}","low_entitlement",10,"urgency","Could you drive me to the doctor?","M","Female",43,"low","urgency","M"
"279",10,16649,"","survey-multi-choice",10,396654,"0.0-10.0",55304,"group1","",384474,"{""Q0"":""Can I see the doctor?""}","low_entitlement",6,"institution","Can I see the doctor?","M","Female",43,"low","institution","M"
"280",11,19937,"","survey-multi-choice",11,417597,"0.0-11.0",55304,"group1","",384474,"{""Q0"":""Send someone to help immediately.""}","high_entitlement",5,"institution","Send someone to help immediately.","D","Female",43,"high","institution","D"
"281",2,19686,"","survey-multi-choice",2,48075,"0.0-2.0",55991,"group2","",275415,"{""Q0"":""Is there any way you could help move my stuff?""}","low_entitlement",1,"interaction","Is there any way you could help move my stuff?","W","Female",27,"low","interaction","EM"
"282",3,41805,"","survey-multi-choice",3,90887,"0.0-3.0",55991,"group2","",275415,"{""Q0"":""I was wondering if you could give me a ride to the doctor?""}","high_entitlement",10,"urgency","I was wondering if you could give me a ride to the doctor?","W","Female",27,"high","urgency","EM"
"283",4,15377,"","survey-multi-choice",4,107269,"0.0-4.0",55991,"group2","",275415,"{""Q0"":""Would it be at all possible to help me out with the rent?""}","high_entitlement",2,"interaction","Would it be at all possible to help me out with the rent?","W","Female",27,"high","interaction","EM"
"284",5,14465,"","survey-multi-choice",5,122740,"0.0-5.0",55991,"group2","",275415,"{""Q0"":""Can I see the doctor?""}","high_entitlement",6,"institution","Can I see the doctor?","M","Female",27,"high","institution","M"
"285",7,34587,"","survey-multi-choice",7,185020,"0.0-7.0",55991,"group2","",275415,"{""Q0"":""Could you please send help?""}","low_entitlement",5,"institution","Could you please send help?","M","Female",27,"low","institution","M"
"286",8,15542,"","survey-multi-choice",8,201567,"0.0-8.0",55991,"group2","",275415,"{""Q0"":""I was wondering if I could get copies of the expense and quarterly reports?""}","low_entitlement",3,"relationship","I was wondering if I could get copies of the expense and quarterly reports?","W","Female",27,"low","relationship","EM"
"287",9,18726,"","survey-multi-choice",9,221298,"0.0-9.0",55991,"group2","",275415,"{""Q0"":""Is there any way you'd be able to pick me up at the airport?""}","high_entitlement",4,"relationship","Is there any way you'd be able to pick me up at the airport?","W","Female",27,"high","relationship","EM"
"288",11,28779,"","survey-multi-choice",11,270008,"0.0-11.0",55991,"group2","",275415,"{""Q0"":""Would it be at all possible for me to stay with you tonight?""}","low_entitlement",9,"urgency","Would it be at all possible for me to stay with you tonight?","W","Female",27,"low","urgency","EM"
"289",2,23281,"","survey-multi-choice",2,127414,"0.0-2.0",56171,"group2","",720208,"{""Q0"":""Is there any way you could help move my stuff?""}","low_entitlement",1,"interaction","Is there any way you could help move my stuff?","W","Female",48,"low","interaction","EM"
"290",3,25237,"","survey-multi-choice",3,153660,"0.0-3.0",56171,"group2","",720208,"{""Q0"":""I can't breathe.""}","high_entitlement",6,"institution","I can't breathe.","IS","Female",48,"high","institution","IS"
"291",5,23926,"","survey-multi-choice",5,190215,"0.0-5.0",56171,"group2","",720208,"{""Q0"":""Can I stay with you tonight?""}","low_entitlement",9,"urgency","Can I stay with you tonight?","M","Female",48,"low","urgency","M"
"292",6,12317,"","survey-multi-choice",6,203540,"0.0-6.0",56171,"group2","",720208,"{""Q0"":""My cat is stuck in a tree.""}","low_entitlement",5,"institution","My cat is stuck in a tree.","IS","Female",48,"low","institution","IS"
"293",7,17069,"","survey-multi-choice",7,221613,"0.0-7.0",56171,"group2","",720208,"{""Q0"":""Can you pick me up at the airport?""}","high_entitlement",4,"relationship","Can you pick me up at the airport?","M","Female",48,"high","relationship","M"
"294",9,14145,"","survey-multi-choice",9,249503,"0.0-9.0",56171,"group2","",720208,"{""Q0"":""Can you help me out with the rent?""}","high_entitlement",2,"interaction","Can you help me out with the rent?","M","Female",48,"high","interaction","M"
"295",10,26138,"","survey-multi-choice",10,276645,"0.0-10.0",56171,"group2","",720208,"{""Q0"":""I need you to drive me to the doctor.""}","high_entitlement",10,"urgency","I need you to drive me to the doctor.","D","Female",48,"high","urgency","D"
"296",11,19694,"","survey-multi-choice",11,297343,"0.0-11.0",56171,"group2","",720208,"{""Q0"":""I was wondering if I could get copies of the expense and quarterly reports?""}","low_entitlement",3,"relationship","I was wondering if I could get copies of the expense and quarterly reports?","W","Female",48,"low","relationship","EM"
"297",2,15369,"","survey-multi-choice",2,96250,"0.0-2.0",56292,"group1","A1ZVTAK0GLO959",769634,"{""Q0"":""Is there any way you'd be able to pick me up at the airport?""}","low_entitlement",4,"relationship","Is there any way you'd be able to pick me up at the airport?","W","Female",31,"low","relationship","EM"
"298",3,16531,"","survey-multi-choice",3,113799,"0.0-3.0",56292,"group1","A1ZVTAK0GLO959",769634,"{""Q0"":""There's an intruder.""}","high_entitlement",5,"institution","There's an intruder.","IS","Female",31,"high","institution","IS"
"299",4,24428,"","survey-multi-choice",4,139240,"0.0-4.0",56292,"group1","A1ZVTAK0GLO959",769634,"{""Q0"":""Can you get me the copies of the expense and quarterly reports?""}","high_entitlement",3,"relationship","Can you get me the copies of the expense and quarterly reports?","M","Female",31,"high","relationship","M"
"300",5,21298,"","survey-multi-choice",5,161563,"0.0-5.0",56292,"group1","A1ZVTAK0GLO959",769634,"{""Q0"":""Would it be at all possible for me to stay with you tonight?""}","high_entitlement",9,"urgency","Would it be at all possible for me to stay with you tonight?","W","Female",31,"high","urgency","EM"
"301",6,22426,"","survey-multi-choice",6,185002,"0.0-6.0",56292,"group1","A1ZVTAK0GLO959",769634,"{""Q0"":""Can you help me out with the rent?""}","low_entitlement",2,"interaction","Can you help me out with the rent?","M","Female",31,"low","interaction","M"
"302",7,14935,"","survey-multi-choice",7,200949,"0.0-7.0",56292,"group1","A1ZVTAK0GLO959",769634,"{""Q0"":""I was wondering if I could see the doctor?""}","low_entitlement",6,"institution","I was wondering if I could see the doctor?","W","Female",31,"low","institution","EM"
"303",10,7249,"","survey-multi-choice",10,231201,"0.0-10.0",56292,"group1","A1ZVTAK0GLO959",769634,"{""Q0"":""I was wondering if you could give me a ride to the doctor?""}","low_entitlement",10,"urgency","I was wondering if you could give me a ride to the doctor?","W","Female",31,"low","urgency","EM"
"304",11,9913,"","survey-multi-choice",11,242127,"0.0-11.0",56292,"group1","A1ZVTAK0GLO959",769634,"{""Q0"":""Could you help me move this stuff into my apartment?""}","high_entitlement",1,"interaction","Could you help me move this stuff into my apartment?","M","Female",31,"high","interaction","M"
"305",2,14532,"","survey-multi-choice",2,76265,"0.0-2.0",57860,"group1","",457755,"{""Q0"":""Would it be at all possible for me to stay with you tonight?""}","high_entitlement",9,"urgency","Would it be at all possible for me to stay with you tonight?","W","Male",35,"high","urgency","EM"
"306",3,12762,"","survey-multi-choice",3,90034,"0.0-3.0",57860,"group1","",457755,"{""Q0"":""Is there any way you'd be able to pick me up at the airport?""}","low_entitlement",4,"relationship","Is there any way you'd be able to pick me up at the airport?","W","Male",35,"low","relationship","EM"
"307",4,13025,"","survey-multi-choice",4,104066,"0.0-4.0",57860,"group1","",457755,"{""Q0"":""Would it be at all possible to help me out with the rent?""}","low_entitlement",2,"interaction","Would it be at all possible to help me out with the rent?","W","Male",35,"low","interaction","EM"
"308",5,11972,"","survey-multi-choice",5,117044,"0.0-5.0",57860,"group1","",457755,"{""Q0"":""Could you help me move this stuff into my apartment?""}","high_entitlement",1,"interaction","Could you help me move this stuff into my apartment?","M","Male",35,"high","interaction","M"
"309",6,16104,"","survey-multi-choice",6,134154,"0.0-6.0",57860,"group1","",457755,"{""Q0"":""I was wondering if I could get copies of the expense and quarterly reports?""}","high_entitlement",3,"relationship","I was wondering if I could get copies of the expense and quarterly reports?","W","Male",35,"high","relationship","EM"
"310",8,7310,"","survey-multi-choice",8,151133,"0.0-8.0",57860,"group1","",457755,"{""Q0"":""I was wondering if I could see the doctor?""}","low_entitlement",6,"institution","I was wondering if I could see the doctor?","W","Male",35,"low","institution","EM"
"311",10,16139,"","survey-multi-choice",10,188784,"0.0-10.0",57860,"group1","",457755,"{""Q0"":""Send someone to help immediately.""}","high_entitlement",5,"institution","Send someone to help immediately.","D","Male",35,"high","institution","D"
"312",11,22137,"","survey-multi-choice",11,211927,"0.0-11.0",57860,"group1","",457755,"{""Q0"":""Could you drive me to the doctor?""}","low_entitlement",10,"urgency","Could you drive me to the doctor?","M","Male",35,"low","urgency","M"
"313",3,18833,"","survey-multi-choice",3,161251,"0.0-3.0",58332,"group1","",431019,"{""Q0"":""Would it be at all possible for me to stay with you tonight?""}","high_entitlement",9,"urgency","Would it be at all possible for me to stay with you tonight?","W","Male",65,"high","urgency","EM"
"314",4,28599,"","survey-multi-choice",4,190873,"0.0-4.0",58332,"group1","",431019,"{""Q0"":""I haven't had a physical this year.""}","low_entitlement",6,"institution","I haven't had a physical this year.","IS","Male",65,"low","institution","IS"
"315",5,23107,"","survey-multi-choice",5,215002,"0.0-5.0",58332,"group1","",431019,"{""Q0"":""Is there any way you'd be able to pick me up at the airport?""}","low_entitlement",4,"relationship","Is there any way you'd be able to pick me up at the airport?","W","Male",65,"low","relationship","EM"
"316",7,36090,"","survey-multi-choice",7,263221,"0.0-7.0",58332,"group1","",431019,"{""Q0"":""There's an intruder.""}","high_entitlement",5,"institution","There's an intruder.","IS","Male",65,"high","institution","IS"
"317",8,27227,"","survey-multi-choice",8,291471,"0.0-8.0",58332,"group1","",431019,"{""Q0"":""Could you help me move this stuff into my apartment?""}","high_entitlement",1,"interaction","Could you help me move this stuff into my apartment?","M","Male",65,"high","interaction","M"
"318",9,27470,"","survey-multi-choice",9,319960,"0.0-9.0",58332,"group1","",431019,"{""Q0"":""Can you get me the copies of the expense and quarterly reports?""}","high_entitlement",3,"relationship","Can you get me the copies of the expense and quarterly reports?","M","Male",65,"high","relationship","M"
"319",10,27373,"","survey-multi-choice",10,348356,"0.0-10.0",58332,"group1","",431019,"{""Q0"":""Can you help me out with the rent?""}","low_entitlement",2,"interaction","Can you help me out with the rent?","M","Male",65,"low","interaction","M"
"320",11,23901,"","survey-multi-choice",11,373281,"0.0-11.0",58332,"group1","",431019,"{""Q0"":""Could you drive me to the doctor?""}","low_entitlement",10,"urgency","Could you drive me to the doctor?","M","Male",65,"low","urgency","M"
"321",2,30706,"","survey-multi-choice",2,81679,"0.0-2.0",61519,"group1","",752360,"{""Q0"":""Would it be at all possible to help me out with the rent?""}","low_entitlement",2,"interaction","Would it be at all possible to help me out with the rent?","W","Male",37,"low","interaction","EM"
"322",3,20441,"","survey-multi-choice",3,103138,"0.0-3.0",61519,"group1","",752360,"{""Q0"":""Is there any way you'd be able to pick me up at the airport?""}","low_entitlement",4,"relationship","Is there any way you'd be able to pick me up at the airport?","W","Male",37,"low","relationship","EM"
"323",4,14431,"","survey-multi-choice",4,118591,"0.0-4.0",61519,"group1","",752360,"{""Q0"":""I was wondering if I could see the doctor?""}","low_entitlement",6,"institution","I was wondering if I could see the doctor?","W","Male",37,"low","institution","EM"
"324",6,21600,"","survey-multi-choice",6,154664,"0.0-6.0",61519,"group1","",752360,"{""Q0"":""There's an intruder.""}","high_entitlement",5,"institution","There's an intruder.","IS","Male",37,"high","institution","IS"
"325",7,19815,"","survey-multi-choice",7,175495,"0.0-7.0",61519,"group1","",752360,"{""Q0"":""Hey, help me move my stuff.""}","high_entitlement",1,"interaction","Hey, help me move my stuff.","D","Male",37,"high","interaction","D"
"326",8,14978,"","survey-multi-choice",8,191488,"0.0-8.0",61519,"group1","",752360,"{""Q0"":""Could you drive me to the doctor?""}","low_entitlement",10,"urgency","Could you drive me to the doctor?","M","Male",37,"low","urgency","M"
"327",9,15157,"","survey-multi-choice",9,207663,"0.0-9.0",61519,"group1","",752360,"{""Q0"":""Can I stay with you tonight?""}","high_entitlement",9,"urgency","Can I stay with you tonight?","M","Male",37,"high","urgency","M"
"328",10,22829,"","survey-multi-choice",10,231509,"0.0-10.0",61519,"group1","",752360,"{""Q0"":""I was wondering if I could get copies of the expense and quarterly reports?""}","high_entitlement",3,"relationship","I was wondering if I could get copies of the expense and quarterly reports?","W","Male",37,"high","relationship","EM"
"329",2,7868,"","survey-multi-choice",2,25335,"0.0-2.0",64887,"group1","",614219,"{""Q0"":""I was wondering if I could see the doctor?""}","low_entitlement",6,"institution","I was wondering if I could see the doctor?","W","Female",30,"low","institution","EM"
"330",3,3885,"","survey-multi-choice",3,30222,"0.0-3.0",64887,"group1","",614219,"{""Q0"":""Is there any way you could help move my stuff?""}","high_entitlement",1,"interaction","Is there any way you could help move my stuff?","W","Female",30,"high","interaction","EM"
"331",4,2286,"","survey-multi-choice",4,33510,"0.0-4.0",64887,"group1","",614219,"{""Q0"":""I'm stuck at the airport.""}","low_entitlement",4,"relationship","I'm stuck at the airport.","IS","Female",30,"low","relationship","IS"
"332",6,2118,"","survey-multi-choice",6,39510,"0.0-6.0",64887,"group1","",614219,"{""Q0"":""I don't have anywhere to sleep.""}","high_entitlement",9,"urgency","I don't have anywhere to sleep.","IS","Female",30,"high","urgency","IS"
"333",8,2533,"","survey-multi-choice",8,45982,"0.0-8.0",64887,"group1","",614219,"{""Q0"":""Send someone to help immediately.""}","high_entitlement",5,"institution","Send someone to help immediately.","D","Female",30,"high","institution","D"
"334",9,2252,"","survey-multi-choice",9,49238,"0.0-9.0",64887,"group1","",614219,"{""Q0"":""Can you help me out with the rent?""}","low_entitlement",2,"interaction","Can you help me out with the rent?","M","Female",30,"low","interaction","M"
"335",10,2557,"","survey-multi-choice",10,52797,"0.0-10.0",64887,"group1","",614219,"{""Q0"":""I'm not sure I have time to compile these reports.""}","high_entitlement",3,"relationship","I'm not sure I have time to compile these reports.","IS","Female",30,"high","relationship","IS"
"336",11,3422,"","survey-multi-choice",11,57222,"0.0-11.0",64887,"group1","",614219,"{""Q0"":""I need you to drive me to the doctor.""}","low_entitlement",10,"urgency","I need you to drive me to the doctor.","D","Female",30,"low","urgency","D"
"337",2,22726,"","survey-multi-choice",2,36684,"0.0-2.0",65743,"group2","",700237,"{""Q0"":""Would it be at all possible for me to stay with you tonight?""}","low_entitlement",9,"urgency","Would it be at all possible for me to stay with you tonight?","W","Male",26,"low","urgency","EM"
"338",3,13772,"","survey-multi-choice",3,51463,"0.0-3.0",65743,"group2","",700237,"{""Q0"":""Can you pick me up at the airport?""}","high_entitlement",4,"relationship","Can you pick me up at the airport?","M","Male",26,"high","relationship","M"
"339",4,16784,"","survey-multi-choice",4,69255,"0.0-4.0",65743,"group2","",700237,"{""Q0"":""I need you to compile these reports.""}","low_entitlement",3,"relationship","I need you to compile these reports.","D","Male",26,"low","relationship","D"
"340",6,5777,"","survey-multi-choice",6,79350,"0.0-6.0",65743,"group2","",700237,"{""Q0"":""Send someone to help immediately.""}","low_entitlement",5,"institution","Send someone to help immediately.","D","Male",26,"low","institution","D"
"341",8,4306,"","survey-multi-choice",8,100847,"0.0-8.0",65743,"group2","",700237,"{""Q0"":""This desk is pretty heavy.""}","low_entitlement",1,"interaction","This desk is pretty heavy.","IS","Male",26,"low","interaction","IS"
"342",9,1881,"","survey-multi-choice",9,103735,"0.0-9.0",65743,"group2","",700237,"{""Q0"":""Would it be at all possible to help me out with the rent?""}","high_entitlement",2,"interaction","Would it be at all possible to help me out with the rent?","W","Male",26,"high","interaction","EM"
"343",10,2996,"","survey-multi-choice",10,107736,"0.0-10.0",65743,"group2","",700237,"{""Q0"":""I need to see the doctor.""}","high_entitlement",6,"institution","I need to see the doctor.","D","Male",26,"high","institution","D"
"344",11,3153,"","survey-multi-choice",11,111895,"0.0-11.0",65743,"group2","",700237,"{""Q0"":""I need you to drive me to the doctor.""}","high_entitlement",10,"urgency","I need you to drive me to the doctor.","D","Male",26,"high","urgency","D"
"345",3,45853,"","survey-multi-choice",3,282683,"0.0-3.0",66682,"group1","",577691,"{""Q0"":""I need you to drive me to the doctor.""}","low_entitlement",10,"urgency","I need you to drive me to the doctor.","D","Female",29,"low","urgency","D"
"346",4,13461,"","survey-multi-choice",4,297146,"0.0-4.0",66682,"group1","",577691,"{""Q0"":""I need you to host me.""}","high_entitlement",9,"urgency","I need you to host me.","D","Female",29,"high","urgency","D"
"347",5,117486,"","survey-multi-choice",5,415635,"0.0-5.0",66682,"group1","",577691,"{""Q0"":""Would it be at all possible to help me out with the rent?""}","low_entitlement",2,"interaction","Would it be at all possible to help me out with the rent?","W","Female",29,"low","interaction","EM"
"348",6,16348,"","survey-multi-choice",6,432987,"0.0-6.0",66682,"group1","",577691,"{""Q0"":""Can you get me the copies of the expense and quarterly reports?""}","high_entitlement",3,"relationship","Can you get me the copies of the expense and quarterly reports?","M","Female",29,"high","relationship","M"
"349",8,11652,"","survey-multi-choice",8,466115,"0.0-8.0",66682,"group1","",577691,"{""Q0"":""Would it be at all possible to send help?""}","high_entitlement",5,"institution","Would it be at all possible to send help?","W","Female",29,"high","institution","EM"
"350",9,61157,"","survey-multi-choice",9,528274,"0.0-9.0",66682,"group1","",577691,"{""Q0"":""I need you to give me a ride home.""}","low_entitlement",4,"relationship","I need you to give me a ride home.","D","Female",29,"low","relationship","D"
"351",10,6261,"","survey-multi-choice",10,535538,"0.0-10.0",66682,"group1","",577691,"{""Q0"":""Could you help me move this stuff into my apartment?""}","high_entitlement",1,"interaction","Could you help me move this stuff into my apartment?","M","Female",29,"high","interaction","M"
"352",11,6340,"","survey-multi-choice",11,543083,"0.0-11.0",66682,"group1","",577691,"{""Q0"":""Can I see the doctor?""}","low_entitlement",6,"institution","Can I see the doctor?","M","Female",29,"low","institution","M"
"353",2,28727,"","survey-multi-choice",2,64103,"0.0-2.0",67700,"group1","",711704,"{""Q0"":""Send someone to help immediately.""}","high_entitlement",5,"institution","Send someone to help immediately.","D","Male",29,"high","institution","D"
"354",3,3085,"","survey-multi-choice",3,68195,"0.0-3.0",67700,"group1","",711704,"{""Q0"":""Could you help me move this stuff into my apartment?""}","high_entitlement",1,"interaction","Could you help me move this stuff into my apartment?","M","Male",29,"high","interaction","M"
"355",5,2764,"","survey-multi-choice",5,77611,"0.0-5.0",67700,"group1","",711704,"{""Q0"":""Would it be at all possible for me to stay with you tonight?""}","high_entitlement",9,"urgency","Would it be at all possible for me to stay with you tonight?","W","Male",29,"high","urgency","EM"
"356",6,3522,"","survey-multi-choice",6,82139,"0.0-6.0",67700,"group1","",711704,"{""Q0"":""I need you to give me a ride home.""}","low_entitlement",4,"relationship","I need you to give me a ride home.","D","Male",29,"low","relationship","D"
"357",7,1514,"","survey-multi-choice",7,84659,"0.0-7.0",67700,"group1","",711704,"{""Q0"":""I haven't had a physical this year.""}","low_entitlement",6,"institution","I haven't had a physical this year.","IS","Male",29,"low","institution","IS"
"358",8,4730,"","survey-multi-choice",8,90394,"0.0-8.0",67700,"group1","",711704,"{""Q0"":""I need you to drive me to the doctor.""}","low_entitlement",10,"urgency","I need you to drive me to the doctor.","D","Male",29,"low","urgency","D"
"359",9,5076,"","survey-multi-choice",9,96475,"0.0-9.0",67700,"group1","",711704,"{""Q0"":""I'm short on cash this month, and rent is coming up.""}","low_entitlement",2,"interaction","I'm short on cash this month, and rent is coming up.","IS","Male",29,"low","interaction","IS"
"360",11,2089,"","survey-multi-choice",11,105346,"0.0-11.0",67700,"group1","",711704,"{""Q0"":""I'm not sure I have time to compile these reports.""}","high_entitlement",3,"relationship","I'm not sure I have time to compile these reports.","IS","Male",29,"high","relationship","IS"
"361",3,413194,"","survey-multi-choice",3,528484,"0.0-3.0",7044,"group1","",356381,"{""Q0"":""I need you to host me.""}","high_entitlement",9,"urgency","I need you to host me.","D","Female",23,"high","urgency","D"
"362",4,32270,"","survey-multi-choice",4,561764,"0.0-4.0",7044,"group1","",356381,"{""Q0"":""Can you get me the copies of the expense and quarterly reports?""}","high_entitlement",3,"relationship","Can you get me the copies of the expense and quarterly reports?","M","Female",23,"high","relationship","M"
"363",5,441696,"","survey-multi-choice",5,1004468,"0.0-5.0",7044,"group1","",356381,"{""Q0"":""I need you to give me a ride home.""}","low_entitlement",4,"relationship","I need you to give me a ride home.","D","Female",23,"low","relationship","D"
"364",7,36037,"","survey-multi-choice",7,1056907,"0.0-7.0",7044,"group1","",356381,"{""Q0"":""Could you help me move this stuff into my apartment?""}","high_entitlement",1,"interaction","Could you help me move this stuff into my apartment?","M","Female",23,"high","interaction","M"
"365",8,20720,"","survey-multi-choice",8,1078636,"0.0-8.0",7044,"group1","",356381,"{""Q0"":""I need to see the doctor.""}","low_entitlement",6,"institution","I need to see the doctor.","D","Female",23,"low","institution","D"
"366",9,22472,"","survey-multi-choice",9,1102116,"0.0-9.0",7044,"group1","",356381,"{""Q0"":""Could you drive me to the doctor?""}","low_entitlement",10,"urgency","Could you drive me to the doctor?","M","Female",23,"low","urgency","M"
"367",10,39655,"","survey-multi-choice",10,1142779,"0.0-10.0",7044,"group1","",356381,"{""Q0"":""Send someone to help immediately.""}","high_entitlement",5,"institution","Send someone to help immediately.","D","Female",23,"high","institution","D"
"368",11,299864,"","survey-multi-choice",11,1443652,"0.0-11.0",7044,"group1","",356381,"{""Q0"":""Can you help me out with the rent?""}","low_entitlement",2,"interaction","Can you help me out with the rent?","M","Female",23,"low","interaction","M"
"369",2,19306,"","survey-multi-choice",2,48187,"0.0-2.0",70928,"group2","",241095,"{""Q0"":""I need to see the doctor.""}","high_entitlement",6,"institution","I need to see the doctor.","D","Male",30,"high","institution","D"
"370",3,12718,"","survey-multi-choice",3,61912,"0.0-3.0",70928,"group2","",241095,"{""Q0"":""Could you drive me to the doctor?""}","high_entitlement",10,"urgency","Could you drive me to the doctor?","M","Male",30,"high","urgency","M"
"371",4,24561,"","survey-multi-choice",4,87479,"0.0-4.0",70928,"group2","",241095,"{""Q0"":""Is there any way you'd be able to pick me up at the airport?""}","high_entitlement",4,"relationship","Is there any way you'd be able to pick me up at the airport?","W","Male",30,"high","relationship","EM"
"372",5,15689,"","survey-multi-choice",5,104175,"0.0-5.0",70928,"group2","",241095,"{""Q0"":""Could you help me move this stuff into my apartment?""}","low_entitlement",1,"interaction","Could you help me move this stuff into my apartment?","M","Male",30,"low","interaction","M"
"373",6,20289,"","survey-multi-choice",6,125471,"0.0-6.0",70928,"group2","",241095,"{""Q0"":""Could you please send help?""}","low_entitlement",5,"institution","Could you please send help?","M","Male",30,"low","institution","M"
"374",7,14450,"","survey-multi-choice",7,140927,"0.0-7.0",70928,"group2","",241095,"{""Q0"":""Can you help me out with the rent?""}","high_entitlement",2,"interaction","Can you help me out with the rent?","M","Male",30,"high","interaction","M"
"375",9,31600,"","survey-multi-choice",9,187112,"0.0-9.0",70928,"group2","",241095,"{""Q0"":""Can you get me the copies of the expense and quarterly reports?""}","low_entitlement",3,"relationship","Can you get me the copies of the expense and quarterly reports?","M","Male",30,"low","relationship","M"
"376",11,12393,"","survey-multi-choice",11,212767,"0.0-11.0",70928,"group2","",241095,"{""Q0"":""Can I stay with you tonight?""}","low_entitlement",9,"urgency","Can I stay with you tonight?","M","Male",30,"low","urgency","M"
"377",2,11882,"","survey-multi-choice",2,41240,"0.0-2.0",71391,"group1","",705889,"{""Q0"":""Could you please send help?""}","high_entitlement",5,"institution","Could you please send help?","M","Male",29,"high","institution","M"
"378",4,15147,"","survey-multi-choice",4,75573,"0.0-4.0",71391,"group1","",705889,"{""Q0"":""Would it be at all possible for me to stay with you tonight?""}","high_entitlement",9,"urgency","Would it be at all possible for me to stay with you tonight?","W","Male",29,"high","urgency","EM"
"379",5,3943,"","survey-multi-choice",5,80518,"0.0-5.0",71391,"group1","",705889,"{""Q0"":""I was wondering if I could see the doctor?""}","low_entitlement",6,"institution","I was wondering if I could see the doctor?","W","Male",29,"low","institution","EM"
"380",6,1844,"","survey-multi-choice",6,83365,"0.0-6.0",71391,"group1","",705889,"{""Q0"":""Would it be at all possible to help me out with the rent?""}","low_entitlement",2,"interaction","Would it be at all possible to help me out with the rent?","W","Male",29,"low","interaction","EM"
"381",7,3196,"","survey-multi-choice",7,87565,"0.0-7.0",71391,"group1","",705889,"{""Q0"":""I was wondering if I could get copies of the expense and quarterly reports?""}","high_entitlement",3,"relationship","I was wondering if I could get copies of the expense and quarterly reports?","W","Male",29,"high","relationship","EM"
