,stimNum,stimType,X,rt,trial_index,subject,group,answer,code,Gender,Age,condition,situation,formatting,mean_entitlement,sd_entitlement,mean_imposition,sd_imposition,mean_power,sd_power,mean_distance,sd_distance
1,1,high_entitlement,8,2180,8,71391,group1,"Hey, help me move my stuff.",D,Male,29,high,interaction,D,5.25,1.850819255,3.6875,1.652287261,4.333333333,1.310080935,4.708333333,1.090741176
2,1,high_entitlement,11,2340,11,34496,group1,Could you help me move this stuff into my apartment?,M,Male,27,high,interaction,M,5.25,1.850819255,3.6875,1.652287261,4.333333333,1.310080935,4.708333333,1.090741176
3,1,high_entitlement,7,19815,7,61519,group1,"Hey, help me move my stuff.",D,Male,37,high,interaction,D,5.25,1.850819255,3.6875,1.652287261,4.333333333,1.310080935,4.708333333,1.090741176
4,1,high_entitlement,3,27882,3,42017,group1,Could you help me move this stuff into my apartment?,M,Female,37,high,interaction,M,5.25,1.850819255,3.6875,1.652287261,4.333333333,1.310080935,4.708333333,1.090741176
5,1,high_entitlement,11,2597,11,33903,group1,Could you help me move this stuff into my apartment?,M,Female,32,high,interaction,M,5.25,1.850819255,3.6875,1.652287261,4.333333333,1.310080935,4.708333333,1.090741176
6,1,high_entitlement,8,30336,8,24718,group1,Is there any way you could help move my stuff?,W,Female,40,high,interaction,EM,5.25,1.850819255,3.6875,1.652287261,4.333333333,1.310080935,4.708333333,1.090741176
7,1,high_entitlement,11,9913,11,56292,group1,Could you help me move this stuff into my apartment?,M,Female,31,high,interaction,M,5.25,1.850819255,3.6875,1.652287261,4.333333333,1.310080935,4.708333333,1.090741176
8,1,high_entitlement,7,36037,7,7044,group1,Could you help me move this stuff into my apartment?,M,Female,23,high,interaction,M,5.25,1.850819255,3.6875,1.652287261,4.333333333,1.310080935,4.708333333,1.090741176
9,1,high_entitlement,9,32102,9,32379,group1,Could you help me move this stuff into my apartment?,M,Male,23,high,interaction,M,5.25,1.850819255,3.6875,1.652287261,4.333333333,1.310080935,4.708333333,1.090741176
10,1,high_entitlement,7,10370,7,46162,group1,Is there any way you could help move my stuff?,W,Male,35,high,interaction,EM,5.25,1.850819255,3.6875,1.652287261,4.333333333,1.310080935,4.708333333,1.090741176
11,1,high_entitlement,5,11972,5,57860,group1,Could you help me move this stuff into my apartment?,M,Male,35,high,interaction,M,5.25,1.850819255,3.6875,1.652287261,4.333333333,1.310080935,4.708333333,1.090741176
12,1,high_entitlement,5,6248,5,45852,group1,"Hey, help me move my stuff.",D,Male,27,high,interaction,D,5.25,1.850819255,3.6875,1.652287261,4.333333333,1.310080935,4.708333333,1.090741176
13,1,high_entitlement,3,3085,3,67700,group1,Could you help me move this stuff into my apartment?,M,Male,29,high,interaction,M,5.25,1.850819255,3.6875,1.652287261,4.333333333,1.310080935,4.708333333,1.090741176
14,1,high_entitlement,6,8071,6,81283,group1,Could you help me move this stuff into my apartment?,M,Female,30,high,interaction,M,5.25,1.850819255,3.6875,1.652287261,4.333333333,1.310080935,4.708333333,1.090741176
15,1,high_entitlement,9,30398,9,95061,group1,"Hey, help me move my stuff.",D,Female,33,high,interaction,D,5.25,1.850819255,3.6875,1.652287261,4.333333333,1.310080935,4.708333333,1.090741176
16,1,high_entitlement,4,2073,4,11674,group1,"Hey, help me move my stuff.",D,Male,41,high,interaction,D,5.25,1.850819255,3.6875,1.652287261,4.333333333,1.310080935,4.708333333,1.090741176
17,1,high_entitlement,8,27227,8,58332,group1,Could you help me move this stuff into my apartment?,M,Male,65,high,interaction,M,5.25,1.850819255,3.6875,1.652287261,4.333333333,1.310080935,4.708333333,1.090741176
18,1,high_entitlement,3,3885,3,64887,group1,Is there any way you could help move my stuff?,W,Female,30,high,interaction,EM,5.25,1.850819255,3.6875,1.652287261,4.333333333,1.310080935,4.708333333,1.090741176
19,1,high_entitlement,7,11585,7,94652,group1,Could you help me move this stuff into my apartment?,M,Female,58,high,interaction,M,5.25,1.850819255,3.6875,1.652287261,4.333333333,1.310080935,4.708333333,1.090741176
20,1,high_entitlement,6,9130,6,20794,group1,This desk is pretty heavy.,IS,Female,33,high,interaction,IS,5.25,1.850819255,3.6875,1.652287261,4.333333333,1.310080935,4.708333333,1.090741176
21,1,high_entitlement,4,16476,4,2471,group1,Could you help me move this stuff into my apartment?,M,Female,59,high,interaction,M,5.25,1.850819255,3.6875,1.652287261,4.333333333,1.310080935,4.708333333,1.090741176
22,1,high_entitlement,11,12548,11,42306,group1,Could you help me move this stuff into my apartment?,M,Female,49,high,interaction,M,5.25,1.850819255,3.6875,1.652287261,4.333333333,1.310080935,4.708333333,1.090741176
23,1,high_entitlement,10,8293,10,89974,group1,Is there any way you could help move my stuff?,W,Female,25,high,interaction,EM,5.25,1.850819255,3.6875,1.652287261,4.333333333,1.310080935,4.708333333,1.090741176
24,1,high_entitlement,4,17406,4,24041,group1,Could you help me move this stuff into my apartment?,M,Male,39,high,interaction,M,5.25,1.850819255,3.6875,1.652287261,4.333333333,1.310080935,4.708333333,1.090741176
25,1,high_entitlement,10,6261,10,66682,group1,Could you help me move this stuff into my apartment?,M,Female,29,high,interaction,M,5.25,1.850819255,3.6875,1.652287261,4.333333333,1.310080935,4.708333333,1.090741176
26,1,high_entitlement,9,3189,9,87326,group1,Could you help me move this stuff into my apartment?,M,Female,22,high,interaction,M,5.25,1.850819255,3.6875,1.652287261,4.333333333,1.310080935,4.708333333,1.090741176
27,1,high_entitlement,9,22230,9,87155,group1,Is there any way you could help move my stuff?,W,Male,26,high,interaction,EM,5.25,1.850819255,3.6875,1.652287261,4.333333333,1.310080935,4.708333333,1.090741176
28,1,high_entitlement,5,26040,5,80148,group1,Could you help me move this stuff into my apartment?,M,Female,33,high,interaction,M,5.25,1.850819255,3.6875,1.652287261,4.333333333,1.310080935,4.708333333,1.090741176
29,1,high_entitlement,8,1190,8,97756,group1,Could you help me move this stuff into my apartment?,M,Male,31,high,interaction,M,5.25,1.850819255,3.6875,1.652287261,4.333333333,1.310080935,4.708333333,1.090741176
30,1,high_entitlement,6,1954,6,8216,group1,Could you help me move this stuff into my apartment?,M,Male,29,high,interaction,M,5.25,1.850819255,3.6875,1.652287261,4.333333333,1.310080935,4.708333333,1.090741176
31,1,high_entitlement,8,11008,8,90211,group1,Could you help me move this stuff into my apartment?,M,Female,27,high,interaction,M,5.25,1.850819255,3.6875,1.652287261,4.333333333,1.310080935,4.708333333,1.090741176
32,1,high_entitlement,2,31792,2,16711,group1,Is there any way you could help move my stuff?,W,Female,42,high,interaction,EM,5.25,1.850819255,3.6875,1.652287261,4.333333333,1.310080935,4.708333333,1.090741176
33,1,high_entitlement,7,19882,7,24995,group1,"Hey, help me move my stuff.",D,Male,30,high,interaction,D,5.25,1.850819255,3.6875,1.652287261,4.333333333,1.310080935,4.708333333,1.090741176
34,1,high_entitlement,7,29161,7,55304,group1,"Hey, help me move my stuff.",D,Female,43,high,interaction,D,5.25,1.850819255,3.6875,1.652287261,4.333333333,1.310080935,4.708333333,1.090741176
35,1,low_entitlement,9,3617,9,1977,group2,This desk is pretty heavy.,IS,Male,33,low,interaction,IS,4.038461538,1.781842387,5.288461538,1.257706261,5.019230769,1.244444669,4.769230769,1.24641265
36,1,low_entitlement,2,31770,2,87512,group2,Could you help me move this stuff into my apartment?,M,Male,38,low,interaction,M,4.038461538,1.781842387,5.288461538,1.257706261,5.019230769,1.244444669,4.769230769,1.24641265
37,1,low_entitlement,2,7490,2,73328,group2,"Hey, help me move my stuff.",D,Male,25,low,interaction,D,4.038461538,1.781842387,5.288461538,1.257706261,5.019230769,1.244444669,4.769230769,1.24641265
38,1,low_entitlement,4,34268,4,50863,group2,Could you help me move this stuff into my apartment?,M,Male,23,low,interaction,M,4.038461538,1.781842387,5.288461538,1.257706261,5.019230769,1.244444669,4.769230769,1.24641265
39,1,low_entitlement,11,15212,11,71861,group2,Could you help me move this stuff into my apartment?,M,Male,30,low,interaction,M,4.038461538,1.781842387,5.288461538,1.257706261,5.019230769,1.244444669,4.769230769,1.24641265
40,1,low_entitlement,8,32151,8,3324,group2,Could you help me move this stuff into my apartment?,M,Male,41,low,interaction,M,4.038461538,1.781842387,5.288461538,1.257706261,5.019230769,1.244444669,4.769230769,1.24641265
41,1,low_entitlement,3,40743,3,8324,group2,Could you help me move this stuff into my apartment?,M,Female,30,low,interaction,M,4.038461538,1.781842387,5.288461538,1.257706261,5.019230769,1.244444669,4.769230769,1.24641265
42,1,low_entitlement,9,5205,9,74734,group2,Is there any way you could help move my stuff?,W,Female,31,low,interaction,EM,4.038461538,1.781842387,5.288461538,1.257706261,5.019230769,1.244444669,4.769230769,1.24641265
43,1,low_entitlement,5,25844,5,42146,group2,Could you help me move this stuff into my apartment?,M,Female,34,low,interaction,M,4.038461538,1.781842387,5.288461538,1.257706261,5.019230769,1.244444669,4.769230769,1.24641265
44,1,low_entitlement,9,31946,9,40239,group2,Is there any way you could help move my stuff?,W,Female,56,low,interaction,EM,4.038461538,1.781842387,5.288461538,1.257706261,5.019230769,1.244444669,4.769230769,1.24641265
45,1,low_entitlement,10,11632,10,45610,group2,Is there any way you could help move my stuff?,W,Female,21,low,interaction,EM,4.038461538,1.781842387,5.288461538,1.257706261,5.019230769,1.244444669,4.769230769,1.24641265
46,1,low_entitlement,10,15861,10,5514,group2,Is there any way you could help move my stuff?,W,Female,47,low,interaction,EM,4.038461538,1.781842387,5.288461538,1.257706261,5.019230769,1.244444669,4.769230769,1.24641265
47,1,low_entitlement,2,4363,2,13778,group2,Is there any way you could help move my stuff?,W,Male,37,low,interaction,EM,4.038461538,1.781842387,5.288461538,1.257706261,5.019230769,1.244444669,4.769230769,1.24641265
48,1,low_entitlement,5,9290,5,1593,group2,Could you help me move this stuff into my apartment?,M,Male,25,low,interaction,M,4.038461538,1.781842387,5.288461538,1.257706261,5.019230769,1.244444669,4.769230769,1.24641265
49,1,low_entitlement,8,4306,8,65743,group2,This desk is pretty heavy.,IS,Male,26,low,interaction,IS,4.038461538,1.781842387,5.288461538,1.257706261,5.019230769,1.244444669,4.769230769,1.24641265
50,1,low_entitlement,4,29229,4,97151,group2,Could you help me move this stuff into my apartment?,M,Male,27,low,interaction,M,4.038461538,1.781842387,5.288461538,1.257706261,5.019230769,1.244444669,4.769230769,1.24641265
51,1,low_entitlement,3,29720,3,28542,group2,Is there any way you could help move my stuff?,W,Male,25,low,interaction,EM,4.038461538,1.781842387,5.288461538,1.257706261,5.019230769,1.244444669,4.769230769,1.24641265
52,1,low_entitlement,5,2481,5,74166,group2,Is there any way you could help move my stuff?,W,Male,25,low,interaction,EM,4.038461538,1.781842387,5.288461538,1.257706261,5.019230769,1.244444669,4.769230769,1.24641265
53,1,low_entitlement,6,28987,6,87775,group2,Is there any way you could help move my stuff?,W,Male,22,low,interaction,EM,4.038461538,1.781842387,5.288461538,1.257706261,5.019230769,1.244444669,4.769230769,1.24641265
54,1,low_entitlement,8,2668,8,91548,group2,"Hey, help me move my stuff.",D,Male,26,low,interaction,D,4.038461538,1.781842387,5.288461538,1.257706261,5.019230769,1.244444669,4.769230769,1.24641265
55,1,low_entitlement,2,30376,2,90609,group2,Is there any way you could help move my stuff?,W,Female,21,low,interaction,EM,4.038461538,1.781842387,5.288461538,1.257706261,5.019230769,1.244444669,4.769230769,1.24641265
56,1,low_entitlement,8,3569,8,75614,group2,Could you help me move this stuff into my apartment?,M,Male,47,low,interaction,M,4.038461538,1.781842387,5.288461538,1.257706261,5.019230769,1.244444669,4.769230769,1.24641265
57,1,low_entitlement,2,19686,2,55991,group2,Is there any way you could help move my stuff?,W,Female,27,low,interaction,EM,4.038461538,1.781842387,5.288461538,1.257706261,5.019230769,1.244444669,4.769230769,1.24641265
58,1,low_entitlement,5,18065,5,22282,group2,Could you help me move this stuff into my apartment?,M,Male,43,low,interaction,M,4.038461538,1.781842387,5.288461538,1.257706261,5.019230769,1.244444669,4.769230769,1.24641265
59,1,low_entitlement,9,5446,9,44710,group2,Could you help me move this stuff into my apartment?,M,Male,24,low,interaction,M,4.038461538,1.781842387,5.288461538,1.257706261,5.019230769,1.244444669,4.769230769,1.24641265
60,1,low_entitlement,4,22063,4,90079,group2,Is there any way you could help move my stuff?,W,Male,39,low,interaction,EM,4.038461538,1.781842387,5.288461538,1.257706261,5.019230769,1.244444669,4.769230769,1.24641265
61,1,low_entitlement,8,8515,8,74278,group2,"Hey, help me move my stuff.",D,Male,25,low,interaction,D,4.038461538,1.781842387,5.288461538,1.257706261,5.019230769,1.244444669,4.769230769,1.24641265
62,1,low_entitlement,7,17025,7,19424,group2,Is there any way you could help move my stuff?,W,Female,52,low,interaction,EM,4.038461538,1.781842387,5.288461538,1.257706261,5.019230769,1.244444669,4.769230769,1.24641265
63,1,low_entitlement,8,1928,8,83161,group2,This desk is pretty heavy.,IS,Male,30,low,interaction,IS,4.038461538,1.781842387,5.288461538,1.257706261,5.019230769,1.244444669,4.769230769,1.24641265
64,1,low_entitlement,6,3649,6,45177,group2,Is there any way you could help move my stuff?,W,Male,29,low,interaction,EM,4.038461538,1.781842387,5.288461538,1.257706261,5.019230769,1.244444669,4.769230769,1.24641265
65,1,low_entitlement,9,15302,9,86881,group2,Could you help me move this stuff into my apartment?,M,Female,20,low,interaction,M,4.038461538,1.781842387,5.288461538,1.257706261,5.019230769,1.244444669,4.769230769,1.24641265
66,1,low_entitlement,5,14964,5,48563,group2,Is there any way you could help move my stuff?,W,Male,25,low,interaction,EM,4.038461538,1.781842387,5.288461538,1.257706261,5.019230769,1.244444669,4.769230769,1.24641265
67,1,low_entitlement,8,21144,8,7349,group2,Could you help me move this stuff into my apartment?,M,Male,33,low,interaction,M,4.038461538,1.781842387,5.288461538,1.257706261,5.019230769,1.244444669,4.769230769,1.24641265
68,1,low_entitlement,6,60737,6,81470,group2,Could you help me move this stuff into my apartment?,M,Male,36,low,interaction,M,4.038461538,1.781842387,5.288461538,1.257706261,5.019230769,1.244444669,4.769230769,1.24641265
69,1,low_entitlement,10,17891,10,25273,group2,Is there any way you could help move my stuff?,W,Male,48,low,interaction,EM,4.038461538,1.781842387,5.288461538,1.257706261,5.019230769,1.244444669,4.769230769,1.24641265
70,1,low_entitlement,8,22379,8,28114,group2,Could you help me move this stuff into my apartment?,M,Female,40,low,interaction,M,4.038461538,1.781842387,5.288461538,1.257706261,5.019230769,1.244444669,4.769230769,1.24641265
71,1,low_entitlement,4,23100,4,79859,group2,Could you help me move this stuff into my apartment?,M,Female,27,low,interaction,M,4.038461538,1.781842387,5.288461538,1.257706261,5.019230769,1.244444669,4.769230769,1.24641265
72,1,low_entitlement,6,18833,6,94407,group2,Is there any way you could help move my stuff?,W,Male,27,low,interaction,EM,4.038461538,1.781842387,5.288461538,1.257706261,5.019230769,1.244444669,4.769230769,1.24641265
73,1,low_entitlement,4,14202,4,98986,group2,Is there any way you could help move my stuff?,W,Female,34,low,interaction,EM,4.038461538,1.781842387,5.288461538,1.257706261,5.019230769,1.244444669,4.769230769,1.24641265
74,1,low_entitlement,9,22144,9,9171,group2,Could you help me move this stuff into my apartment?,M,Male,43,low,interaction,M,4.038461538,1.781842387,5.288461538,1.257706261,5.019230769,1.244444669,4.769230769,1.24641265
75,1,low_entitlement,2,23281,2,56171,group2,Is there any way you could help move my stuff?,W,Female,48,low,interaction,EM,4.038461538,1.781842387,5.288461538,1.257706261,5.019230769,1.244444669,4.769230769,1.24641265
76,1,low_entitlement,5,15689,5,70928,group2,Could you help me move this stuff into my apartment?,M,Male,30,low,interaction,M,4.038461538,1.781842387,5.288461538,1.257706261,5.019230769,1.244444669,4.769230769,1.24641265
77,1,low_entitlement,6,29497,6,85567,group2,Could you help me move this stuff into my apartment?,M,Male,33,low,interaction,M,4.038461538,1.781842387,5.288461538,1.257706261,5.019230769,1.244444669,4.769230769,1.24641265
78,1,low_entitlement,9,37698,9,36333,group2,Could you help me move this stuff into my apartment?,M,Female,42,low,interaction,M,4.038461538,1.781842387,5.288461538,1.257706261,5.019230769,1.244444669,4.769230769,1.24641265
79,1,low_entitlement,3,89901,3,76012,group2,Is there any way you could help move my stuff?,W,Male,27,low,interaction,EM,4.038461538,1.781842387,5.288461538,1.257706261,5.019230769,1.244444669,4.769230769,1.24641265
80,1,low_entitlement,9,19513,9,43477,group2,Could you help me move this stuff into my apartment?,M,Male,26,low,interaction,M,4.038461538,1.781842387,5.288461538,1.257706261,5.019230769,1.244444669,4.769230769,1.24641265
81,1,low_entitlement,11,23368,11,16670,group2,"Hey, help me move my stuff.",D,Male,30,low,interaction,D,4.038461538,1.781842387,5.288461538,1.257706261,5.019230769,1.244444669,4.769230769,1.24641265
82,10,high_entitlement,2,10009,2,75614,group2,I need you to drive me to the doctor.,D,Male,47,high,urgency,D,5.924528302,1.806495296,3.320754717,2.146316925,5.339622642,1.300050239,2.452830189,2.162317469
83,10,high_entitlement,8,15141,8,85567,group2,I need you to drive me to the doctor.,D,Male,33,high,urgency,D,5.924528302,1.806495296,3.320754717,2.146316925,5.339622642,1.300050239,2.452830189,2.162317469
84,10,high_entitlement,5,32517,5,36333,group2,Could you drive me to the doctor?,M,Female,42,high,urgency,M,5.924528302,1.806495296,3.320754717,2.146316925,5.339622642,1.300050239,2.452830189,2.162317469
85,10,high_entitlement,8,15589,8,25273,group2,I need you to drive me to the doctor.,D,Male,48,high,urgency,D,5.924528302,1.806495296,3.320754717,2.146316925,5.339622642,1.300050239,2.452830189,2.162317469
86,10,high_entitlement,6,13082,6,87512,group2,Could you drive me to the doctor?,M,Male,38,high,urgency,M,5.924528302,1.806495296,3.320754717,2.146316925,5.339622642,1.300050239,2.452830189,2.162317469
87,10,high_entitlement,9,43142,9,8324,group2,I need you to drive me to the doctor.,D,Female,30,high,urgency,D,5.924528302,1.806495296,3.320754717,2.146316925,5.339622642,1.300050239,2.452830189,2.162317469
88,10,high_entitlement,2,2836,2,74278,group2,I don't know how to get to the doctor.,IS,Male,25,high,urgency,IS,5.924528302,1.806495296,3.320754717,2.146316925,5.339622642,1.300050239,2.452830189,2.162317469
89,10,high_entitlement,8,42360,8,48563,group2,I need you to drive me to the doctor.,D,Male,25,high,urgency,D,5.924528302,1.806495296,3.320754717,2.146316925,5.339622642,1.300050239,2.452830189,2.162317469
90,10,high_entitlement,3,13234,3,19424,group2,I need you to drive me to the doctor.,D,Female,52,high,urgency,D,5.924528302,1.806495296,3.320754717,2.146316925,5.339622642,1.300050239,2.452830189,2.162317469
91,10,high_entitlement,10,12953,10,74166,group2,Could you drive me to the doctor?,M,Male,25,high,urgency,M,5.924528302,1.806495296,3.320754717,2.146316925,5.339622642,1.300050239,2.452830189,2.162317469
92,10,high_entitlement,3,7788,3,45177,group2,I was wondering if you could give me a ride to the doctor?,W,Male,29,high,urgency,EM,5.924528302,1.806495296,3.320754717,2.146316925,5.339622642,1.300050239,2.452830189,2.162317469
93,10,high_entitlement,9,54945,9,90609,group2,I need you to drive me to the doctor.,D,Female,21,high,urgency,D,5.924528302,1.806495296,3.320754717,2.146316925,5.339622642,1.300050239,2.452830189,2.162317469
94,10,high_entitlement,7,3762,7,1977,group2,Could you drive me to the doctor?,M,Male,33,high,urgency,M,5.924528302,1.806495296,3.320754717,2.146316925,5.339622642,1.300050239,2.452830189,2.162317469
95,10,high_entitlement,11,3116,11,74734,group2,Could you drive me to the doctor?,M,Female,31,high,urgency,M,5.924528302,1.806495296,3.320754717,2.146316925,5.339622642,1.300050239,2.452830189,2.162317469
96,10,high_entitlement,10,26138,10,56171,group2,I need you to drive me to the doctor.,D,Female,48,high,urgency,D,5.924528302,1.806495296,3.320754717,2.146316925,5.339622642,1.300050239,2.452830189,2.162317469
97,10,high_entitlement,2,22310,2,45610,group2,I need you to drive me to the doctor.,D,Female,21,high,urgency,D,5.924528302,1.806495296,3.320754717,2.146316925,5.339622642,1.300050239,2.452830189,2.162317469
98,10,high_entitlement,9,3508,9,13778,group2,I was wondering if you could give me a ride to the doctor?,W,Male,37,high,urgency,EM,5.924528302,1.806495296,3.320754717,2.146316925,5.339622642,1.300050239,2.452830189,2.162317469
99,10,high_entitlement,2,7986,2,40239,group2,I need you to drive me to the doctor.,D,Female,56,high,urgency,D,5.924528302,1.806495296,3.320754717,2.146316925,5.339622642,1.300050239,2.452830189,2.162317469
100,10,high_entitlement,5,3210,5,28542,group2,I need you to drive me to the doctor.,D,Male,25,high,urgency,D,5.924528302,1.806495296,3.320754717,2.146316925,5.339622642,1.300050239,2.452830189,2.162317469
101,10,high_entitlement,7,18056,7,43477,group2,I need you to drive me to the doctor.,D,Male,26,high,urgency,D,5.924528302,1.806495296,3.320754717,2.146316925,5.339622642,1.300050239,2.452830189,2.162317469
102,10,high_entitlement,9,2698,9,1593,group2,I don't know how to get to the doctor.,IS,Male,25,high,urgency,IS,5.924528302,1.806495296,3.320754717,2.146316925,5.339622642,1.300050239,2.452830189,2.162317469
103,10,high_entitlement,3,26623,3,94407,group2,Could you drive me to the doctor?,M,Male,27,high,urgency,M,5.924528302,1.806495296,3.320754717,2.146316925,5.339622642,1.300050239,2.452830189,2.162317469
104,10,high_entitlement,10,21030,10,97151,group2,Could you drive me to the doctor?,M,Male,27,high,urgency,M,5.924528302,1.806495296,3.320754717,2.146316925,5.339622642,1.300050239,2.452830189,2.162317469
105,10,high_entitlement,8,27676,8,79859,group2,Could you drive me to the doctor?,M,Female,27,high,urgency,M,5.924528302,1.806495296,3.320754717,2.146316925,5.339622642,1.300050239,2.452830189,2.162317469
106,10,high_entitlement,3,41805,3,55991,group2,I was wondering if you could give me a ride to the doctor?,W,Female,27,high,urgency,EM,5.924528302,1.806495296,3.320754717,2.146316925,5.339622642,1.300050239,2.452830189,2.162317469
107,10,high_entitlement,6,8910,6,22282,group2,Could you drive me to the doctor?,M,Male,43,high,urgency,M,5.924528302,1.806495296,3.320754717,2.146316925,5.339622642,1.300050239,2.452830189,2.162317469
108,10,high_entitlement,9,8978,9,76012,group2,I need you to drive me to the doctor.,D,Male,27,high,urgency,D,5.924528302,1.806495296,3.320754717,2.146316925,5.339622642,1.300050239,2.452830189,2.162317469
109,10,high_entitlement,5,22821,5,90079,group2,I need you to drive me to the doctor.,D,Male,39,high,urgency,D,5.924528302,1.806495296,3.320754717,2.146316925,5.339622642,1.300050239,2.452830189,2.162317469
110,10,high_entitlement,4,32952,4,3324,group2,Could you drive me to the doctor?,M,Male,41,high,urgency,M,5.924528302,1.806495296,3.320754717,2.146316925,5.339622642,1.300050239,2.452830189,2.162317469
111,10,high_entitlement,4,15463,4,71861,group2,I was wondering if you could give me a ride to the doctor?,W,Male,30,high,urgency,EM,5.924528302,1.806495296,3.320754717,2.146316925,5.339622642,1.300050239,2.452830189,2.162317469
112,10,high_entitlement,11,3153,11,65743,group2,I need you to drive me to the doctor.,D,Male,26,high,urgency,D,5.924528302,1.806495296,3.320754717,2.146316925,5.339622642,1.300050239,2.452830189,2.162317469
113,10,high_entitlement,3,32129,3,86881,group2,I was wondering if you could give me a ride to the doctor?,W,Female,20,high,urgency,EM,5.924528302,1.806495296,3.320754717,2.146316925,5.339622642,1.300050239,2.452830189,2.162317469
114,10,high_entitlement,8,7125,8,87775,group2,Could you drive me to the doctor?,M,Male,22,high,urgency,M,5.924528302,1.806495296,3.320754717,2.146316925,5.339622642,1.300050239,2.452830189,2.162317469
115,10,high_entitlement,8,20874,8,81470,group2,I need you to drive me to the doctor.,D,Male,36,high,urgency,D,5.924528302,1.806495296,3.320754717,2.146316925,5.339622642,1.300050239,2.452830189,2.162317469
116,10,high_entitlement,4,14562,4,7349,group2,I need you to drive me to the doctor.,D,Male,33,high,urgency,D,5.924528302,1.806495296,3.320754717,2.146316925,5.339622642,1.300050239,2.452830189,2.162317469
117,10,high_entitlement,5,9386,5,98986,group2,I need you to drive me to the doctor.,D,Female,34,high,urgency,D,5.924528302,1.806495296,3.320754717,2.146316925,5.339622642,1.300050239,2.452830189,2.162317469
118,10,high_entitlement,11,2607,11,83161,group2,I was wondering if you could give me a ride to the doctor?,W,Male,30,high,urgency,EM,5.924528302,1.806495296,3.320754717,2.146316925,5.339622642,1.300050239,2.452830189,2.162317469
119,10,high_entitlement,5,2116,5,91548,group2,I need you to drive me to the doctor.,D,Male,26,high,urgency,D,5.924528302,1.806495296,3.320754717,2.146316925,5.339622642,1.300050239,2.452830189,2.162317469
120,10,high_entitlement,3,12718,3,70928,group2,Could you drive me to the doctor?,M,Male,30,high,urgency,M,5.924528302,1.806495296,3.320754717,2.146316925,5.339622642,1.300050239,2.452830189,2.162317469
121,10,high_entitlement,7,10071,7,42146,group2,Could you drive me to the doctor?,M,Female,34,high,urgency,M,5.924528302,1.806495296,3.320754717,2.146316925,5.339622642,1.300050239,2.452830189,2.162317469
122,10,high_entitlement,2,21513,2,44710,group2,I need you to drive me to the doctor.,D,Male,24,high,urgency,D,5.924528302,1.806495296,3.320754717,2.146316925,5.339622642,1.300050239,2.452830189,2.162317469
123,10,high_entitlement,3,21931,3,5514,group2,I was wondering if you could give me a ride to the doctor?,W,Female,47,high,urgency,EM,5.924528302,1.806495296,3.320754717,2.146316925,5.339622642,1.300050239,2.452830189,2.162317469
124,10,high_entitlement,4,21235,4,28114,group2,I need you to drive me to the doctor.,D,Female,40,high,urgency,D,5.924528302,1.806495296,3.320754717,2.146316925,5.339622642,1.300050239,2.452830189,2.162317469
125,10,high_entitlement,10,1999,10,73328,group2,I was wondering if you could give me a ride to the doctor?,W,Male,25,high,urgency,EM,5.924528302,1.806495296,3.320754717,2.146316925,5.339622642,1.300050239,2.452830189,2.162317469
126,10,high_entitlement,10,27807,10,16670,group2,I need you to drive me to the doctor.,D,Male,30,high,urgency,D,5.924528302,1.806495296,3.320754717,2.146316925,5.339622642,1.300050239,2.452830189,2.162317469
127,10,high_entitlement,10,25613,10,9171,group2,I need you to drive me to the doctor.,D,Male,43,high,urgency,D,5.924528302,1.806495296,3.320754717,2.146316925,5.339622642,1.300050239,2.452830189,2.162317469
128,10,high_entitlement,7,22709,7,50863,group2,I need you to drive me to the doctor.,D,Male,23,high,urgency,D,5.924528302,1.806495296,3.320754717,2.146316925,5.339622642,1.300050239,2.452830189,2.162317469
129,10,low_entitlement,9,13850,9,16711,group1,Could you drive me to the doctor?,M,Female,42,low,urgency,M,5.791666667,1.761990332,2.666666667,1.766512773,4.468085106,1.717569869,2.145833333,2.031555146
130,10,low_entitlement,9,2340,9,71391,group1,I was wondering if you could give me a ride to the doctor?,W,Male,29,low,urgency,EM,5.791666667,1.761990332,2.666666667,1.766512773,4.468085106,1.717569869,2.145833333,2.031555146
131,10,low_entitlement,9,22472,9,7044,group1,Could you drive me to the doctor?,M,Female,23,low,urgency,M,5.791666667,1.761990332,2.666666667,1.766512773,4.468085106,1.717569869,2.145833333,2.031555146
132,10,low_entitlement,11,51996,11,95061,group1,I was wondering if you could give me a ride to the doctor?,W,Female,33,low,urgency,EM,5.791666667,1.761990332,2.666666667,1.766512773,4.468085106,1.717569869,2.145833333,2.031555146
133,10,low_entitlement,8,4141,8,34496,group1,Could you drive me to the doctor?,M,Male,27,low,urgency,M,5.791666667,1.761990332,2.666666667,1.766512773,4.468085106,1.717569869,2.145833333,2.031555146
134,10,low_entitlement,8,14978,8,61519,group1,Could you drive me to the doctor?,M,Male,37,low,urgency,M,5.791666667,1.761990332,2.666666667,1.766512773,4.468085106,1.717569869,2.145833333,2.031555146
135,10,low_entitlement,4,44733,4,90211,group1,I need you to drive me to the doctor.,D,Female,27,low,urgency,D,5.791666667,1.761990332,2.666666667,1.766512773,4.468085106,1.717569869,2.145833333,2.031555146
136,10,low_entitlement,6,7857,6,46162,group1,I was wondering if you could give me a ride to the doctor?,W,Male,35,low,urgency,EM,5.791666667,1.761990332,2.666666667,1.766512773,4.468085106,1.717569869,2.145833333,2.031555146
137,10,low_entitlement,4,5911,4,81283,group1,I was wondering if you could give me a ride to the doctor?,W,Female,30,low,urgency,EM,5.791666667,1.761990332,2.666666667,1.766512773,4.468085106,1.717569869,2.145833333,2.031555146
138,10,low_entitlement,8,2295,8,45852,group1,I was wondering if you could give me a ride to the doctor?,W,Male,27,low,urgency,EM,5.791666667,1.761990332,2.666666667,1.766512773,4.468085106,1.717569869,2.145833333,2.031555146
139,10,low_entitlement,2,11254,2,87326,group1,Could you drive me to the doctor?,M,Female,22,low,urgency,M,5.791666667,1.761990332,2.666666667,1.766512773,4.468085106,1.717569869,2.145833333,2.031555146
140,10,low_entitlement,10,7567,10,32379,group1,Could you drive me to the doctor?,M,Male,23,low,urgency,M,5.791666667,1.761990332,2.666666667,1.766512773,4.468085106,1.717569869,2.145833333,2.031555146
141,10,low_entitlement,7,2868,7,33903,group1,Could you drive me to the doctor?,M,Female,32,low,urgency,M,5.791666667,1.761990332,2.666666667,1.766512773,4.468085106,1.717569869,2.145833333,2.031555146
142,10,low_entitlement,6,1745,6,11674,group1,I don't know how to get to the doctor.,IS,Male,41,low,urgency,IS,5.791666667,1.761990332,2.666666667,1.766512773,4.468085106,1.717569869,2.145833333,2.031555146
143,10,low_entitlement,8,7212,8,24041,group1,I need you to drive me to the doctor.,D,Male,39,low,urgency,D,5.791666667,1.761990332,2.666666667,1.766512773,4.468085106,1.717569869,2.145833333,2.031555146
144,10,low_entitlement,3,45853,3,66682,group1,I need you to drive me to the doctor.,D,Female,29,low,urgency,D,5.791666667,1.761990332,2.666666667,1.766512773,4.468085106,1.717569869,2.145833333,2.031555146
145,10,low_entitlement,10,21740,10,42017,group1,Could you drive me to the doctor?,M,Female,37,low,urgency,M,5.791666667,1.761990332,2.666666667,1.766512773,4.468085106,1.717569869,2.145833333,2.031555146
146,10,low_entitlement,11,23901,11,58332,group1,Could you drive me to the doctor?,M,Male,65,low,urgency,M,5.791666667,1.761990332,2.666666667,1.766512773,4.468085106,1.717569869,2.145833333,2.031555146
147,10,low_entitlement,11,22137,11,57860,group1,Could you drive me to the doctor?,M,Male,35,low,urgency,M,5.791666667,1.761990332,2.666666667,1.766512773,4.468085106,1.717569869,2.145833333,2.031555146
148,10,low_entitlement,8,4730,8,67700,group1,I need you to drive me to the doctor.,D,Male,29,low,urgency,D,5.791666667,1.761990332,2.666666667,1.766512773,4.468085106,1.717569869,2.145833333,2.031555146
149,10,low_entitlement,8,21058,8,55304,group1,Could you drive me to the doctor?,M,Female,43,low,urgency,M,5.791666667,1.761990332,2.666666667,1.766512773,4.468085106,1.717569869,2.145833333,2.031555146
150,10,low_entitlement,7,13042,7,87155,group1,Could you drive me to the doctor?,M,Male,26,low,urgency,M,5.791666667,1.761990332,2.666666667,1.766512773,4.468085106,1.717569869,2.145833333,2.031555146
151,10,low_entitlement,8,18060,8,80148,group1,Could you drive me to the doctor?,M,Female,33,low,urgency,M,5.791666667,1.761990332,2.666666667,1.766512773,4.468085106,1.717569869,2.145833333,2.031555146
152,10,low_entitlement,11,3422,11,64887,group1,I need you to drive me to the doctor.,D,Female,30,low,urgency,D,5.791666667,1.761990332,2.666666667,1.766512773,4.468085106,1.717569869,2.145833333,2.031555146
153,10,low_entitlement,10,7026,10,24995,group1,Could you drive me to the doctor?,M,Male,30,low,urgency,M,5.791666667,1.761990332,2.666666667,1.766512773,4.468085106,1.717569869,2.145833333,2.031555146
154,10,low_entitlement,10,7174,10,94652,group1,I was wondering if you could give me a ride to the doctor?,W,Female,58,low,urgency,EM,5.791666667,1.761990332,2.666666667,1.766512773,4.468085106,1.717569869,2.145833333,2.031555146
155,10,low_entitlement,2,11285,2,24718,group1,I was wondering if you could give me a ride to the doctor?,W,Female,40,low,urgency,EM,5.791666667,1.761990332,2.666666667,1.766512773,4.468085106,1.717569869,2.145833333,2.031555146
156,10,low_entitlement,9,1382,9,97756,group1,Could you drive me to the doctor?,M,Male,31,low,urgency,M,5.791666667,1.761990332,2.666666667,1.766512773,4.468085106,1.717569869,2.145833333,2.031555146
157,10,low_entitlement,2,15632,2,2471,group1,I was wondering if you could give me a ride to the doctor?,W,Female,59,low,urgency,EM,5.791666667,1.761990332,2.666666667,1.766512773,4.468085106,1.717569869,2.145833333,2.031555146
158,10,low_entitlement,8,4076,8,20794,group1,I was wondering if you could give me a ride to the doctor?,W,Female,33,low,urgency,EM,5.791666667,1.761990332,2.666666667,1.766512773,4.468085106,1.717569869,2.145833333,2.031555146
159,10,low_entitlement,10,7249,10,56292,group1,I was wondering if you could give me a ride to the doctor?,W,Female,31,low,urgency,EM,5.791666667,1.761990332,2.666666667,1.766512773,4.468085106,1.717569869,2.145833333,2.031555146
160,10,low_entitlement,3,6602,3,89974,group1,Could you drive me to the doctor?,M,Female,25,low,urgency,M,5.791666667,1.761990332,2.666666667,1.766512773,4.468085106,1.717569869,2.145833333,2.031555146
161,10,low_entitlement,3,74655,3,8216,group1,Could you drive me to the doctor?,M,Male,29,low,urgency,M,5.791666667,1.761990332,2.666666667,1.766512773,4.468085106,1.717569869,2.145833333,2.031555146
162,10,low_entitlement,3,37290,3,42306,group1,Could you drive me to the doctor?,M,Female,49,low,urgency,M,5.791666667,1.761990332,2.666666667,1.766512773,4.468085106,1.717569869,2.145833333,2.031555146
163,2,high_entitlement,10,4118,10,1977,group2,Can you help me out with the rent?,M,Male,33,high,interaction,M,5.622641509,1.913780141,4.830188679,1.553356775,4.79245283,1.633289396,5.20754717,1.245893108
164,2,high_entitlement,6,13749,6,42146,group2,Would it be at all possible to help me out with the rent?,W,Female,34,high,interaction,EM,5.622641509,1.913780141,4.830188679,1.553356775,4.79245283,1.633289396,5.20754717,1.245893108
165,2,high_entitlement,11,12241,11,5514,group2,Would it be at all possible to help me out with the rent?,W,Female,47,high,interaction,EM,5.622641509,1.913780141,4.830188679,1.553356775,4.79245283,1.633289396,5.20754717,1.245893108
166,2,high_entitlement,10,13650,10,40239,group2,"I'm short on cash this month, and rent is coming up.",IS,Female,56,high,interaction,IS,5.622641509,1.913780141,4.830188679,1.553356775,4.79245283,1.633289396,5.20754717,1.245893108
167,2,high_entitlement,9,19887,9,48563,group2,Can you help me out with the rent?,M,Male,25,high,interaction,M,5.622641509,1.913780141,4.830188679,1.553356775,4.79245283,1.633289396,5.20754717,1.245893108
168,2,high_entitlement,6,11687,6,43477,group2,Can you help me out with the rent?,M,Male,26,high,interaction,M,5.622641509,1.913780141,4.830188679,1.553356775,4.79245283,1.633289396,5.20754717,1.245893108
169,2,high_entitlement,6,30825,6,36333,group2,Can you help me out with the rent?,M,Female,42,high,interaction,M,5.622641509,1.913780141,4.830188679,1.553356775,4.79245283,1.633289396,5.20754717,1.245893108
170,2,high_entitlement,9,14991,9,71861,group2,"I'm short on cash this month, and rent is coming up.",IS,Male,30,high,interaction,IS,5.622641509,1.913780141,4.830188679,1.553356775,4.79245283,1.633289396,5.20754717,1.245893108
171,2,high_entitlement,10,10921,10,7349,group2,"I'm short on cash this month, and rent is coming up.",IS,Male,33,high,interaction,IS,5.622641509,1.913780141,4.830188679,1.553356775,4.79245283,1.633289396,5.20754717,1.245893108
172,2,high_entitlement,9,1881,9,65743,group2,Would it be at all possible to help me out with the rent?,W,Male,26,high,interaction,EM,5.622641509,1.913780141,4.830188679,1.553356775,4.79245283,1.633289396,5.20754717,1.245893108
173,2,high_entitlement,4,6466,4,45177,group2,Would it be at all possible to help me out with the rent?,W,Male,29,high,interaction,EM,5.622641509,1.913780141,4.830188679,1.553356775,4.79245283,1.633289396,5.20754717,1.245893108
174,2,high_entitlement,6,1740,6,13778,group2,"I'm short on cash this month, and rent is coming up.",IS,Male,37,high,interaction,IS,5.622641509,1.913780141,4.830188679,1.553356775,4.79245283,1.633289396,5.20754717,1.245893108
175,2,high_entitlement,10,9115,10,87775,group2,Can you help me out with the rent?,M,Male,22,high,interaction,M,5.622641509,1.913780141,4.830188679,1.553356775,4.79245283,1.633289396,5.20754717,1.245893108
176,2,high_entitlement,6,3580,6,44710,group2,Would it be at all possible to help me out with the rent?,W,Male,24,high,interaction,EM,5.622641509,1.913780141,4.830188679,1.553356775,4.79245283,1.633289396,5.20754717,1.245893108
177,2,high_entitlement,7,23034,7,3324,group2,Can you help me out with the rent?,M,Male,41,high,interaction,M,5.622641509,1.913780141,4.830188679,1.553356775,4.79245283,1.633289396,5.20754717,1.245893108
178,2,high_entitlement,5,10650,5,45610,group2,Would it be at all possible to help me out with the rent?,W,Female,21,high,interaction,EM,5.622641509,1.913780141,4.830188679,1.553356775,4.79245283,1.633289396,5.20754717,1.245893108
179,2,high_entitlement,3,23677,3,50863,group2,Would it be at all possible to help me out with the rent?,W,Male,23,high,interaction,EM,5.622641509,1.913780141,4.830188679,1.553356775,4.79245283,1.633289396,5.20754717,1.245893108
180,2,high_entitlement,4,15377,4,55991,group2,Would it be at all possible to help me out with the rent?,W,Female,27,high,interaction,EM,5.622641509,1.913780141,4.830188679,1.553356775,4.79245283,1.633289396,5.20754717,1.245893108
181,2,high_entitlement,4,12785,4,76012,group2,Can you help me out with the rent?,M,Male,27,high,interaction,M,5.622641509,1.913780141,4.830188679,1.553356775,4.79245283,1.633289396,5.20754717,1.245893108
182,2,high_entitlement,11,18067,11,85567,group2,I need you to cover my rent this month.,D,Male,33,high,interaction,D,5.622641509,1.913780141,4.830188679,1.553356775,4.79245283,1.633289396,5.20754717,1.245893108
183,2,high_entitlement,9,15136,9,97151,group2,Would it be at all possible to help me out with the rent?,W,Male,27,high,interaction,EM,5.622641509,1.913780141,4.830188679,1.553356775,4.79245283,1.633289396,5.20754717,1.245893108
184,2,high_entitlement,3,21331,3,79859,group2,Can you help me out with the rent?,M,Female,27,high,interaction,M,5.622641509,1.913780141,4.830188679,1.553356775,4.79245283,1.633289396,5.20754717,1.245893108
185,2,high_entitlement,3,4323,3,91548,group2,Can you help me out with the rent?,M,Male,26,high,interaction,M,5.622641509,1.913780141,4.830188679,1.553356775,4.79245283,1.633289396,5.20754717,1.245893108
186,2,high_entitlement,10,9212,10,28114,group2,Can you help me out with the rent?,M,Female,40,high,interaction,M,5.622641509,1.913780141,4.830188679,1.553356775,4.79245283,1.633289396,5.20754717,1.245893108
187,2,high_entitlement,8,15249,8,90079,group2,Would it be at all possible to help me out with the rent?,W,Male,39,high,interaction,EM,5.622641509,1.913780141,4.830188679,1.553356775,4.79245283,1.633289396,5.20754717,1.245893108
188,2,high_entitlement,9,14145,9,56171,group2,Can you help me out with the rent?,M,Female,48,high,interaction,M,5.622641509,1.913780141,4.830188679,1.553356775,4.79245283,1.633289396,5.20754717,1.245893108
189,2,high_entitlement,3,10983,3,25273,group2,Would it be at all possible to help me out with the rent?,W,Male,48,high,interaction,EM,5.622641509,1.913780141,4.830188679,1.553356775,4.79245283,1.633289396,5.20754717,1.245893108
190,2,high_entitlement,7,4146,7,28542,group2,I need you to cover my rent this month.,D,Male,25,high,interaction,D,5.622641509,1.913780141,4.830188679,1.553356775,4.79245283,1.633289396,5.20754717,1.245893108
191,2,high_entitlement,2,64809,2,16670,group2,Can you help me out with the rent?,M,Male,30,high,interaction,M,5.622641509,1.913780141,4.830188679,1.553356775,4.79245283,1.633289396,5.20754717,1.245893108
192,2,high_entitlement,4,29829,4,8324,group2,I need you to cover my rent this month.,D,Female,30,high,interaction,D,5.622641509,1.913780141,4.830188679,1.553356775,4.79245283,1.633289396,5.20754717,1.245893108
193,2,high_entitlement,6,12018,6,98986,group2,Can you help me out with the rent?,M,Female,34,high,interaction,M,5.622641509,1.913780141,4.830188679,1.553356775,4.79245283,1.633289396,5.20754717,1.245893108
194,2,high_entitlement,7,14450,7,70928,group2,Can you help me out with the rent?,M,Male,30,high,interaction,M,5.622641509,1.913780141,4.830188679,1.553356775,4.79245283,1.633289396,5.20754717,1.245893108
195,2,high_entitlement,10,40204,10,87512,group2,Can you help me out with the rent?,M,Male,38,high,interaction,M,5.622641509,1.913780141,4.830188679,1.553356775,4.79245283,1.633289396,5.20754717,1.245893108
196,2,high_entitlement,8,7689,8,1593,group2,I need you to cover my rent this month.,D,Male,25,high,interaction,D,5.622641509,1.913780141,4.830188679,1.553356775,4.79245283,1.633289396,5.20754717,1.245893108
197,2,high_entitlement,4,11954,4,74166,group2,Can you help me out with the rent?,M,Male,25,high,interaction,M,5.622641509,1.913780141,4.830188679,1.553356775,4.79245283,1.633289396,5.20754717,1.245893108
198,2,high_entitlement,11,1476,11,73328,group2,Would it be at all possible to help me out with the rent?,W,Male,25,high,interaction,EM,5.622641509,1.913780141,4.830188679,1.553356775,4.79245283,1.633289396,5.20754717,1.245893108
199,2,high_entitlement,4,4581,4,74734,group2,Can you help me out with the rent?,M,Female,31,high,interaction,M,5.622641509,1.913780141,4.830188679,1.553356775,4.79245283,1.633289396,5.20754717,1.245893108
200,2,high_entitlement,9,7906,9,74278,group2,I need you to cover my rent this month.,D,Male,25,high,interaction,D,5.622641509,1.913780141,4.830188679,1.553356775,4.79245283,1.633289396,5.20754717,1.245893108
201,2,high_entitlement,4,11551,4,75614,group2,I need you to cover my rent this month.,D,Male,47,high,interaction,D,5.622641509,1.913780141,4.830188679,1.553356775,4.79245283,1.633289396,5.20754717,1.245893108
202,2,high_entitlement,10,7732,10,90609,group2,Would it be at all possible to help me out with the rent?,W,Female,21,high,interaction,EM,5.622641509,1.913780141,4.830188679,1.553356775,4.79245283,1.633289396,5.20754717,1.245893108
203,2,high_entitlement,10,8402,10,22282,group2,I need you to cover my rent this month.,D,Male,43,high,interaction,D,5.622641509,1.913780141,4.830188679,1.553356775,4.79245283,1.633289396,5.20754717,1.245893108
204,2,high_entitlement,2,27430,2,19424,group2,Would it be at all possible to help me out with the rent?,W,Female,52,high,interaction,EM,5.622641509,1.913780141,4.830188679,1.553356775,4.79245283,1.633289396,5.20754717,1.245893108
205,2,high_entitlement,2,68579,2,94407,group2,Would it be at all possible to help me out with the rent?,W,Male,27,high,interaction,EM,5.622641509,1.913780141,4.830188679,1.553356775,4.79245283,1.633289396,5.20754717,1.245893108
206,2,high_entitlement,5,97733,5,81470,group2,Would it be at all possible to help me out with the rent?,W,Male,36,high,interaction,EM,5.622641509,1.913780141,4.830188679,1.553356775,4.79245283,1.633289396,5.20754717,1.245893108
207,2,high_entitlement,7,27271,7,86881,group2,Would it be at all possible to help me out with the rent?,W,Female,20,high,interaction,EM,5.622641509,1.913780141,4.830188679,1.553356775,4.79245283,1.633289396,5.20754717,1.245893108
208,2,high_entitlement,8,33210,8,9171,group2,Would it be at all possible to help me out with the rent?,W,Male,43,high,interaction,EM,5.622641509,1.913780141,4.830188679,1.553356775,4.79245283,1.633289396,5.20754717,1.245893108
209,2,low_entitlement,6,22426,6,56292,group1,Can you help me out with the rent?,M,Female,31,low,interaction,M,3.0625,2.025436648,5.9375,1.060033119,5.604166667,1.425297033,4.708333333,1.270924163
210,2,low_entitlement,6,27661,6,95061,group1,"I'm short on cash this month, and rent is coming up.",IS,Female,33,low,interaction,IS,3.0625,2.025436648,5.9375,1.060033119,5.604166667,1.425297033,4.708333333,1.270924163
211,2,low_entitlement,8,2360,8,11674,group1,"I'm short on cash this month, and rent is coming up.",IS,Male,41,low,interaction,IS,3.0625,2.025436648,5.9375,1.060033119,5.604166667,1.425297033,4.708333333,1.270924163
212,2,low_entitlement,11,299864,11,7044,group1,Can you help me out with the rent?,M,Female,23,low,interaction,M,3.0625,2.025436648,5.9375,1.060033119,5.604166667,1.425297033,4.708333333,1.270924163
213,2,low_entitlement,6,12101,6,2471,group1,Would it be at all possible to help me out with the rent?,W,Female,59,low,interaction,EM,3.0625,2.025436648,5.9375,1.060033119,5.604166667,1.425297033,4.708333333,1.270924163
214,2,low_entitlement,6,7328,6,24995,group1,Would it be at all possible to help me out with the rent?,W,Male,30,low,interaction,EM,3.0625,2.025436648,5.9375,1.060033119,5.604166667,1.425297033,4.708333333,1.270924163
215,2,low_entitlement,10,27373,10,58332,group1,Can you help me out with the rent?,M,Male,65,low,interaction,M,3.0625,2.025436648,5.9375,1.060033119,5.604166667,1.425297033,4.708333333,1.270924163
216,2,low_entitlement,9,8249,9,46162,group1,Would it be at all possible to help me out with the rent?,W,Male,35,low,interaction,EM,3.0625,2.025436648,5.9375,1.060033119,5.604166667,1.425297033,4.708333333,1.270924163
217,2,low_entitlement,10,11187,10,24041,group1,Can you help me out with the rent?,M,Male,39,low,interaction,M,3.0625,2.025436648,5.9375,1.060033119,5.604166667,1.425297033,4.708333333,1.270924163
218,2,low_entitlement,5,117486,5,66682,group1,Would it be at all possible to help me out with the rent?,W,Female,29,low,interaction,EM,3.0625,2.025436648,5.9375,1.060033119,5.604166667,1.425297033,4.708333333,1.270924163
219,2,low_entitlement,6,1844,6,71391,group1,Would it be at all possible to help me out with the rent?,W,Male,29,low,interaction,EM,3.0625,2.025436648,5.9375,1.060033119,5.604166667,1.425297033,4.708333333,1.270924163
220,2,low_entitlement,6,3510,6,33903,group1,Can you help me out with the rent?,M,Female,32,low,interaction,M,3.0625,2.025436648,5.9375,1.060033119,5.604166667,1.425297033,4.708333333,1.270924163
221,2,low_entitlement,6,4086,6,89974,group1,I need you to cover my rent this month.,D,Female,25,low,interaction,D,3.0625,2.025436648,5.9375,1.060033119,5.604166667,1.425297033,4.708333333,1.270924163
222,2,low_entitlement,10,6322,10,90211,group1,Would it be at all possible to help me out with the rent?,W,Female,27,low,interaction,EM,3.0625,2.025436648,5.9375,1.060033119,5.604166667,1.425297033,4.708333333,1.270924163
223,2,low_entitlement,3,3746,3,34496,group1,Would it be at all possible to help me out with the rent?,W,Male,27,low,interaction,EM,3.0625,2.025436648,5.9375,1.060033119,5.604166667,1.425297033,4.708333333,1.270924163
224,2,low_entitlement,6,28026,6,80148,group1,"I'm short on cash this month, and rent is coming up.",IS,Female,33,low,interaction,IS,3.0625,2.025436648,5.9375,1.060033119,5.604166667,1.425297033,4.708333333,1.270924163
225,2,low_entitlement,10,18983,10,16711,group1,"I'm short on cash this month, and rent is coming up.",IS,Female,42,low,interaction,IS,3.0625,2.025436648,5.9375,1.060033119,5.604166667,1.425297033,4.708333333,1.270924163
226,2,low_entitlement,10,17390,10,45852,group1,I need you to cover my rent this month.,D,Male,27,low,interaction,D,3.0625,2.025436648,5.9375,1.060033119,5.604166667,1.425297033,4.708333333,1.270924163
227,2,low_entitlement,4,13025,4,57860,group1,Would it be at all possible to help me out with the rent?,W,Male,35,low,interaction,EM,3.0625,2.025436648,5.9375,1.060033119,5.604166667,1.425297033,4.708333333,1.270924163
228,2,low_entitlement,6,35089,6,55304,group1,Can you help me out with the rent?,M,Female,43,low,interaction,M,3.0625,2.025436648,5.9375,1.060033119,5.604166667,1.425297033,4.708333333,1.270924163
229,2,low_entitlement,11,12173,11,24718,group1,Would it be at all possible to help me out with the rent?,W,Female,40,low,interaction,EM,3.0625,2.025436648,5.9375,1.060033119,5.604166667,1.425297033,4.708333333,1.270924163
230,2,low_entitlement,9,5076,9,67700,group1,"I'm short on cash this month, and rent is coming up.",IS,Male,29,low,interaction,IS,3.0625,2.025436648,5.9375,1.060033119,5.604166667,1.425297033,4.708333333,1.270924163
231,2,low_entitlement,7,14337,7,32379,group1,Would it be at all possible to help me out with the rent?,W,Male,23,low,interaction,EM,3.0625,2.025436648,5.9375,1.060033119,5.604166667,1.425297033,4.708333333,1.270924163
232,2,low_entitlement,4,17666,4,42017,group1,Would it be at all possible to help me out with the rent?,W,Female,37,low,interaction,EM,3.0625,2.025436648,5.9375,1.060033119,5.604166667,1.425297033,4.708333333,1.270924163
233,2,low_entitlement,11,5655,11,81283,group1,Can you help me out with the rent?,M,Female,30,low,interaction,M,3.0625,2.025436648,5.9375,1.060033119,5.604166667,1.425297033,4.708333333,1.270924163
234,2,low_entitlement,2,30706,2,61519,group1,Would it be at all possible to help me out with the rent?,W,Male,37,low,interaction,EM,3.0625,2.025436648,5.9375,1.060033119,5.604166667,1.425297033,4.708333333,1.270924163
235,2,low_entitlement,9,2252,9,64887,group1,Can you help me out with the rent?,M,Female,30,low,interaction,M,3.0625,2.025436648,5.9375,1.060033119,5.604166667,1.425297033,4.708333333,1.270924163
236,2,low_entitlement,11,2203,11,8216,group1,Would it be at all possible to help me out with the rent?,W,Male,29,low,interaction,EM,3.0625,2.025436648,5.9375,1.060033119,5.604166667,1.425297033,4.708333333,1.270924163
237,2,low_entitlement,2,20569,2,94652,group1,Would it be at all possible to help me out with the rent?,W,Female,58,low,interaction,EM,3.0625,2.025436648,5.9375,1.060033119,5.604166667,1.425297033,4.708333333,1.270924163
238,2,low_entitlement,8,20378,8,87155,group1,Would it be at all possible to help me out with the rent?,W,Male,26,low,interaction,EM,3.0625,2.025436648,5.9375,1.060033119,5.604166667,1.425297033,4.708333333,1.270924163
239,2,low_entitlement,8,11865,8,42306,group1,Would it be at all possible to help me out with the rent?,W,Female,49,low,interaction,EM,3.0625,2.025436648,5.9375,1.060033119,5.604166667,1.425297033,4.708333333,1.270924163
240,2,low_entitlement,11,4813,11,87326,group1,Would it be at all possible to help me out with the rent?,W,Female,22,low,interaction,EM,3.0625,2.025436648,5.9375,1.060033119,5.604166667,1.425297033,4.708333333,1.270924163
241,2,low_entitlement,11,38740,11,20794,group1,Would it be at all possible to help me out with the rent?,W,Female,33,low,interaction,EM,3.0625,2.025436648,5.9375,1.060033119,5.604166667,1.425297033,4.708333333,1.270924163
242,2,low_entitlement,10,1845,10,97756,group1,Would it be at all possible to help me out with the rent?,W,Male,31,low,interaction,EM,3.0625,2.025436648,5.9375,1.060033119,5.604166667,1.425297033,4.708333333,1.270924163
243,3,high_entitlement,10,20283,10,80148,group1,Can you get me the copies of the expense and quarterly reports?,M,Female,33,high,relationship,M,5.270833333,1.620868999,3.979166667,1.850699504,3.787234043,2.254812922,4.083333333,1.350072233
244,3,high_entitlement,6,16104,6,57860,group1,I was wondering if I could get copies of the expense and quarterly reports?,W,Male,35,high,relationship,EM,5.270833333,1.620868999,3.979166667,1.850699504,3.787234043,2.254812922,4.083333333,1.350072233
245,3,high_entitlement,10,22829,10,61519,group1,I was wondering if I could get copies of the expense and quarterly reports?,W,Male,37,high,relationship,EM,5.270833333,1.620868999,3.979166667,1.850699504,3.787234043,2.254812922,4.083333333,1.350072233
246,3,high_entitlement,9,12267,9,2471,group1,Can you get me the copies of the expense and quarterly reports?,M,Female,59,high,relationship,M,5.270833333,1.620868999,3.979166667,1.850699504,3.787234043,2.254812922,4.083333333,1.350072233
247,3,high_entitlement,4,1261,4,97756,group1,I need you to compile these reports.,D,Male,31,high,relationship,D,5.270833333,1.620868999,3.979166667,1.850699504,3.787234043,2.254812922,4.083333333,1.350072233
248,3,high_entitlement,5,18160,5,42017,group1,Can you get me the copies of the expense and quarterly reports?,M,Female,37,high,relationship,M,5.270833333,1.620868999,3.979166667,1.850699504,3.787234043,2.254812922,4.083333333,1.350072233
249,3,high_entitlement,10,2557,10,64887,group1,I'm not sure I have time to compile these reports.,IS,Female,30,high,relationship,IS,5.270833333,1.620868999,3.979166667,1.850699504,3.787234043,2.254812922,4.083333333,1.350072233
250,3,high_entitlement,10,1259,10,11674,group1,I need you to compile these reports.,D,Male,41,high,relationship,D,5.270833333,1.620868999,3.979166667,1.850699504,3.787234043,2.254812922,4.083333333,1.350072233
251,3,high_entitlement,7,3196,7,71391,group1,I was wondering if I could get copies of the expense and quarterly reports?,W,Male,29,high,relationship,EM,5.270833333,1.620868999,3.979166667,1.850699504,3.787234043,2.254812922,4.083333333,1.350072233
252,3,high_entitlement,9,27470,9,58332,group1,Can you get me the copies of the expense and quarterly reports?,M,Male,65,high,relationship,M,5.270833333,1.620868999,3.979166667,1.850699504,3.787234043,2.254812922,4.083333333,1.350072233
253,3,high_entitlement,8,28548,8,32379,group1,I need you to compile these reports.,D,Male,23,high,relationship,D,5.270833333,1.620868999,3.979166667,1.850699504,3.787234043,2.254812922,4.083333333,1.350072233
254,3,high_entitlement,3,16845,3,45852,group1,I need you to compile these reports.,D,Male,27,high,relationship,D,5.270833333,1.620868999,3.979166667,1.850699504,3.787234043,2.254812922,4.083333333,1.350072233
255,3,high_entitlement,4,8308,4,24995,group1,Can you get me the copies of the expense and quarterly reports?,M,Male,30,high,relationship,M,5.270833333,1.620868999,3.979166667,1.850699504,3.787234043,2.254812922,4.083333333,1.350072233
256,3,high_entitlement,5,8609,5,87326,group1,I was wondering if I could get copies of the expense and quarterly reports?,W,Female,22,high,relationship,EM,5.270833333,1.620868999,3.979166667,1.850699504,3.787234043,2.254812922,4.083333333,1.350072233
257,3,high_entitlement,2,11863,2,89974,group1,I need you to compile these reports.,D,Female,25,high,relationship,D,5.270833333,1.620868999,3.979166667,1.850699504,3.787234043,2.254812922,4.083333333,1.350072233
258,3,high_entitlement,6,16348,6,66682,group1,Can you get me the copies of the expense and quarterly reports?,M,Female,29,high,relationship,M,5.270833333,1.620868999,3.979166667,1.850699504,3.787234043,2.254812922,4.083333333,1.350072233
259,3,high_entitlement,11,9191,11,46162,group1,Can you get me the copies of the expense and quarterly reports?,M,Male,35,high,relationship,M,5.270833333,1.620868999,3.979166667,1.850699504,3.787234043,2.254812922,4.083333333,1.350072233
260,3,high_entitlement,2,36232,2,42306,group1,Can you get me the copies of the expense and quarterly reports?,M,Female,49,high,relationship,M,5.270833333,1.620868999,3.979166667,1.850699504,3.787234043,2.254812922,4.083333333,1.350072233
261,3,high_entitlement,4,24428,4,56292,group1,Can you get me the copies of the expense and quarterly reports?,M,Female,31,high,relationship,M,5.270833333,1.620868999,3.979166667,1.850699504,3.787234043,2.254812922,4.083333333,1.350072233
262,3,high_entitlement,6,12557,6,94652,group1,Can you get me the copies of the expense and quarterly reports?,M,Female,58,high,relationship,M,5.270833333,1.620868999,3.979166667,1.850699504,3.787234043,2.254812922,4.083333333,1.350072233
263,3,high_entitlement,5,6012,5,81283,group1,Can you get me the copies of the expense and quarterly reports?,M,Female,30,high,relationship,M,5.270833333,1.620868999,3.979166667,1.850699504,3.787234043,2.254812922,4.083333333,1.350072233
264,3,high_entitlement,5,34871,5,55304,group1,Can you get me the copies of the expense and quarterly reports?,M,Female,43,high,relationship,M,5.270833333,1.620868999,3.979166667,1.850699504,3.787234043,2.254812922,4.083333333,1.350072233
265,3,high_entitlement,5,19309,5,16711,group1,I was wondering if I could get copies of the expense and quarterly reports?,W,Female,42,high,relationship,EM,5.270833333,1.620868999,3.979166667,1.850699504,3.787234043,2.254812922,4.083333333,1.350072233
266,3,high_entitlement,3,13931,3,24718,group1,I need you to compile these reports.,D,Female,40,high,relationship,D,5.270833333,1.620868999,3.979166667,1.850699504,3.787234043,2.254812922,4.083333333,1.350072233
267,3,high_entitlement,4,32270,4,7044,group1,Can you get me the copies of the expense and quarterly reports?,M,Female,23,high,relationship,M,5.270833333,1.620868999,3.979166667,1.850699504,3.787234043,2.254812922,4.083333333,1.350072233
268,3,high_entitlement,8,2709,8,33903,group1,Can you get me the copies of the expense and quarterly reports?,M,Female,32,high,relationship,M,5.270833333,1.620868999,3.979166667,1.850699504,3.787234043,2.254812922,4.083333333,1.350072233
269,3,high_entitlement,2,6109,2,20794,group1,Can you get me the copies of the expense and quarterly reports?,M,Female,33,high,relationship,M,5.270833333,1.620868999,3.979166667,1.850699504,3.787234043,2.254812922,4.083333333,1.350072233
270,3,high_entitlement,10,6278,10,34496,group1,Can you get me the copies of the expense and quarterly reports?,M,Male,27,high,relationship,M,5.270833333,1.620868999,3.979166667,1.850699504,3.787234043,2.254812922,4.083333333,1.350072233
271,3,high_entitlement,6,12459,6,24041,group1,I was wondering if I could get copies of the expense and quarterly reports?,W,Male,39,high,relationship,EM,5.270833333,1.620868999,3.979166667,1.850699504,3.787234043,2.254812922,4.083333333,1.350072233
272,3,high_entitlement,3,27869,3,90211,group1,I'm not sure I have time to compile these reports.,IS,Female,27,high,relationship,IS,5.270833333,1.620868999,3.979166667,1.850699504,3.787234043,2.254812922,4.083333333,1.350072233
273,3,high_entitlement,9,2354,9,8216,group1,Can you get me the copies of the expense and quarterly reports?,M,Male,29,high,relationship,M,5.270833333,1.620868999,3.979166667,1.850699504,3.787234043,2.254812922,4.083333333,1.350072233
274,3,high_entitlement,3,19603,3,87155,group1,Can you get me the copies of the expense and quarterly reports?,M,Male,26,high,relationship,M,5.270833333,1.620868999,3.979166667,1.850699504,3.787234043,2.254812922,4.083333333,1.350072233
275,3,high_entitlement,11,2089,11,67700,group1,I'm not sure I have time to compile these reports.,IS,Male,29,high,relationship,IS,5.270833333,1.620868999,3.979166667,1.850699504,3.787234043,2.254812922,4.083333333,1.350072233
276,3,high_entitlement,7,118554,7,95061,group1,Can you get me the copies of the expense and quarterly reports?,M,Female,33,high,relationship,M,5.270833333,1.620868999,3.979166667,1.850699504,3.787234043,2.254812922,4.083333333,1.350072233
277,3,low_entitlement,4,11257,4,22282,group2,Can you get me the copies of the expense and quarterly reports?,M,Male,43,low,relationship,M,4.826923077,1.677079088,4.037735849,1.663664446,6.094339623,1.348277404,3.113207547,1.660171184
278,3,low_entitlement,2,13118,2,74166,group2,I'm not sure I have time to compile these reports.,IS,Male,25,low,relationship,IS,4.826923077,1.677079088,4.037735849,1.663664446,6.094339623,1.348277404,3.113207547,1.660171184
279,3,low_entitlement,11,19694,11,56171,group2,I was wondering if I could get copies of the expense and quarterly reports?,W,Female,48,low,relationship,EM,4.826923077,1.677079088,4.037735849,1.663664446,6.094339623,1.348277404,3.113207547,1.660171184
280,3,low_entitlement,5,4547,5,40239,group2,I was wondering if I could get copies of the expense and quarterly reports?,W,Female,56,low,relationship,EM,4.826923077,1.677079088,4.037735849,1.663664446,6.094339623,1.348277404,3.113207547,1.660171184
281,3,low_entitlement,2,20390,2,42146,group2,Can you get me the copies of the expense and quarterly reports?,M,Female,34,low,relationship,M,4.826923077,1.677079088,4.037735849,1.663664446,6.094339623,1.348277404,3.113207547,1.660171184
282,3,low_entitlement,4,16784,4,65743,group2,I need you to compile these reports.,D,Male,26,low,relationship,D,4.826923077,1.677079088,4.037735849,1.663664446,6.094339623,1.348277404,3.113207547,1.660171184
283,3,low_entitlement,7,31765,7,9171,group2,Can you get me the copies of the expense and quarterly reports?,M,Male,43,low,relationship,M,4.826923077,1.677079088,4.037735849,1.663664446,6.094339623,1.348277404,3.113207547,1.660171184
284,3,low_entitlement,5,16589,5,25273,group2,I was wondering if I could get copies of the expense and quarterly reports?,W,Male,48,low,relationship,EM,4.826923077,1.677079088,4.037735849,1.663664446,6.094339623,1.348277404,3.113207547,1.660171184
285,3,low_entitlement,3,34432,3,3324,group2,I was wondering if I could get copies of the expense and quarterly reports?,W,Male,41,low,relationship,EM,4.826923077,1.677079088,4.037735849,1.663664446,6.094339623,1.348277404,3.113207547,1.660171184
286,3,low_entitlement,9,4435,9,87512,group2,I was wondering if I could get copies of the expense and quarterly reports?,W,Male,38,low,relationship,EM,4.826923077,1.677079088,4.037735849,1.663664446,6.094339623,1.348277404,3.113207547,1.660171184
287,3,low_entitlement,6,14999,6,19424,group2,I was wondering if I could get copies of the expense and quarterly reports?,W,Female,52,low,relationship,EM,4.826923077,1.677079088,4.037735849,1.663664446,6.094339623,1.348277404,3.113207547,1.660171184
288,3,low_entitlement,8,15542,8,55991,group2,I was wondering if I could get copies of the expense and quarterly reports?,W,Female,27,low,relationship,EM,4.826923077,1.677079088,4.037735849,1.663664446,6.094339623,1.348277404,3.113207547,1.660171184
289,3,low_entitlement,8,24857,8,36333,group2,Can you get me the copies of the expense and quarterly reports?,M,Female,42,low,relationship,M,4.826923077,1.677079088,4.037735849,1.663664446,6.094339623,1.348277404,3.113207547,1.660171184
290,3,low_entitlement,6,19804,6,79859,group2,I was wondering if I could get copies of the expense and quarterly reports?,W,Female,27,low,relationship,EM,4.826923077,1.677079088,4.037735849,1.663664446,6.094339623,1.348277404,3.113207547,1.660171184
291,3,low_entitlement,7,3722,7,45177,group2,I was wondering if I could get copies of the expense and quarterly reports?,W,Male,29,low,relationship,EM,4.826923077,1.677079088,4.037735849,1.663664446,6.094339623,1.348277404,3.113207547,1.660171184
292,3,low_entitlement,11,12462,11,87775,group2,Can you get me the copies of the expense and quarterly reports?,M,Male,22,low,relationship,M,4.826923077,1.677079088,4.037735849,1.663664446,6.094339623,1.348277404,3.113207547,1.660171184
293,3,low_entitlement,4,3325,4,1977,group2,I was wondering if I could get copies of the expense and quarterly reports?,W,Male,33,low,relationship,EM,4.826923077,1.677079088,4.037735849,1.663664446,6.094339623,1.348277404,3.113207547,1.660171184
294,3,low_entitlement,4,27767,4,90609,group2,Can you get me the copies of the expense and quarterly reports?,M,Female,21,low,relationship,M,4.826923077,1.677079088,4.037735849,1.663664446,6.094339623,1.348277404,3.113207547,1.660171184
295,3,low_entitlement,4,31948,4,16670,group2,Can you get me the copies of the expense and quarterly reports?,M,Male,30,low,relationship,M,4.826923077,1.677079088,4.037735849,1.663664446,6.094339623,1.348277404,3.113207547,1.660171184
296,3,low_entitlement,7,74521,7,8324,group2,I need you to compile these reports.,D,Female,30,low,relationship,D,4.826923077,1.677079088,4.037735849,1.663664446,6.094339623,1.348277404,3.113207547,1.660171184
297,3,low_entitlement,9,31600,9,70928,group2,Can you get me the copies of the expense and quarterly reports?,M,Male,30,low,relationship,M,4.826923077,1.677079088,4.037735849,1.663664446,6.094339623,1.348277404,3.113207547,1.660171184
298,3,low_entitlement,6,26340,6,50863,group2,I was wondering if I could get copies of the expense and quarterly reports?,W,Male,23,low,relationship,EM,4.826923077,1.677079088,4.037735849,1.663664446,6.094339623,1.348277404,3.113207547,1.660171184
299,3,low_entitlement,4,2465,4,74278,group2,I'm not sure I have time to compile these reports.,IS,Male,25,low,relationship,IS,4.826923077,1.677079088,4.037735849,1.663664446,6.094339623,1.348277404,3.113207547,1.660171184
300,3,low_entitlement,3,2667,3,83161,group2,I'm not sure I have time to compile these reports.,IS,Male,30,low,relationship,IS,4.826923077,1.677079088,4.037735849,1.663664446,6.094339623,1.348277404,3.113207547,1.660171184
301,3,low_entitlement,11,8182,11,13778,group2,I was wondering if I could get copies of the expense and quarterly reports?,W,Male,37,low,relationship,EM,4.826923077,1.677079088,4.037735849,1.663664446,6.094339623,1.348277404,3.113207547,1.660171184
302,3,low_entitlement,2,27460,2,5514,group2,I was wondering if I could get copies of the expense and quarterly reports?,W,Female,47,low,relationship,EM,4.826923077,1.677079088,4.037735849,1.663664446,6.094339623,1.348277404,3.113207547,1.660171184
303,3,low_entitlement,5,61427,5,85567,group2,Can you get me the copies of the expense and quarterly reports?,M,Male,33,low,relationship,M,4.826923077,1.677079088,4.037735849,1.663664446,6.094339623,1.348277404,3.113207547,1.660171184
304,3,low_entitlement,5,3357,5,44710,group2,I was wondering if I could get copies of the expense and quarterly reports?,W,Male,24,low,relationship,EM,4.826923077,1.677079088,4.037735849,1.663664446,6.094339623,1.348277404,3.113207547,1.660171184
305,3,low_entitlement,8,3767,8,74734,group2,I was wondering if I could get copies of the expense and quarterly reports?,W,Female,31,low,relationship,EM,4.826923077,1.677079088,4.037735849,1.663664446,6.094339623,1.348277404,3.113207547,1.660171184
306,3,low_entitlement,10,3234,10,91548,group2,Can you get me the copies of the expense and quarterly reports?,M,Male,26,low,relationship,M,4.826923077,1.677079088,4.037735849,1.663664446,6.094339623,1.348277404,3.113207547,1.660171184
307,3,low_entitlement,7,13808,7,71861,group2,I was wondering if I could get copies of the expense and quarterly reports?,W,Male,30,low,relationship,EM,4.826923077,1.677079088,4.037735849,1.663664446,6.094339623,1.348277404,3.113207547,1.660171184
308,3,low_entitlement,10,45348,10,48563,group2,Can you get me the copies of the expense and quarterly reports?,M,Male,25,low,relationship,M,4.826923077,1.677079088,4.037735849,1.663664446,6.094339623,1.348277404,3.113207547,1.660171184
309,3,low_entitlement,11,7975,11,45610,group2,I was wondering if I could get copies of the expense and quarterly reports?,W,Female,21,low,relationship,EM,4.826923077,1.677079088,4.037735849,1.663664446,6.094339623,1.348277404,3.113207547,1.660171184
310,3,low_entitlement,3,17734,3,81470,group2,Can you get me the copies of the expense and quarterly reports?,M,Male,36,low,relationship,M,4.826923077,1.677079088,4.037735849,1.663664446,6.094339623,1.348277404,3.113207547,1.660171184
311,3,low_entitlement,5,15243,5,86881,group2,I was wondering if I could get copies of the expense and quarterly reports?,W,Female,20,low,relationship,EM,4.826923077,1.677079088,4.037735849,1.663664446,6.094339623,1.348277404,3.113207547,1.660171184
312,3,low_entitlement,10,14409,10,43477,group2,Can you get me the copies of the expense and quarterly reports?,M,Male,26,low,relationship,M,4.826923077,1.677079088,4.037735849,1.663664446,6.094339623,1.348277404,3.113207547,1.660171184
313,3,low_entitlement,7,5039,7,75614,group2,I was wondering if I could get copies of the expense and quarterly reports?,W,Male,47,low,relationship,EM,4.826923077,1.677079088,4.037735849,1.663664446,6.094339623,1.348277404,3.113207547,1.660171184
314,3,low_entitlement,6,3563,6,1593,group2,Can you get me the copies of the expense and quarterly reports?,M,Male,25,low,relationship,M,4.826923077,1.677079088,4.037735849,1.663664446,6.094339623,1.348277404,3.113207547,1.660171184
315,3,low_entitlement,7,1785,7,73328,group2,I need you to compile these reports.,D,Male,25,low,relationship,D,4.826923077,1.677079088,4.037735849,1.663664446,6.094339623,1.348277404,3.113207547,1.660171184
316,3,low_entitlement,3,14704,3,98986,group2,Can you get me the copies of the expense and quarterly reports?,M,Female,34,low,relationship,M,4.826923077,1.677079088,4.037735849,1.663664446,6.094339623,1.348277404,3.113207547,1.660171184
317,3,low_entitlement,7,26173,7,97151,group2,I was wondering if I could get copies of the expense and quarterly reports?,W,Male,27,low,relationship,EM,4.826923077,1.677079088,4.037735849,1.663664446,6.094339623,1.348277404,3.113207547,1.660171184
318,3,low_entitlement,2,101234,2,76012,group2,Can you get me the copies of the expense and quarterly reports?,M,Male,27,low,relationship,M,4.826923077,1.677079088,4.037735849,1.663664446,6.094339623,1.348277404,3.113207547,1.660171184
319,3,low_entitlement,2,26225,2,7349,group2,I was wondering if I could get copies of the expense and quarterly reports?,W,Male,33,low,relationship,EM,4.826923077,1.677079088,4.037735849,1.663664446,6.094339623,1.348277404,3.113207547,1.660171184
320,3,low_entitlement,11,34323,11,28114,group2,I'm not sure I have time to compile these reports.,IS,Female,40,low,relationship,IS,4.826923077,1.677079088,4.037735849,1.663664446,6.094339623,1.348277404,3.113207547,1.660171184
321,3,low_entitlement,2,185051,2,28542,group2,I need you to compile these reports.,D,Male,25,low,relationship,D,4.826923077,1.677079088,4.037735849,1.663664446,6.094339623,1.348277404,3.113207547,1.660171184
322,3,low_entitlement,8,7584,8,94407,group2,Can you get me the copies of the expense and quarterly reports?,M,Male,27,low,relationship,M,4.826923077,1.677079088,4.037735849,1.663664446,6.094339623,1.348277404,3.113207547,1.660171184
323,3,low_entitlement,11,20618,11,90079,group2,I was wondering if I could get copies of the expense and quarterly reports?,W,Male,39,low,relationship,EM,4.826923077,1.677079088,4.037735849,1.663664446,6.094339623,1.348277404,3.113207547,1.660171184
324,4,high_entitlement,7,8403,7,22282,group2,Can you pick me up at the airport?,M,Male,43,high,relationship,M,5.846153846,1.55152822,3.807692308,1.782688667,4.725490196,1.470760774,6.442307692,1.161700267
325,4,high_entitlement,2,43710,2,3324,group2,Can you pick me up at the airport?,M,Male,41,high,relationship,M,5.846153846,1.55152822,3.807692308,1.782688667,4.725490196,1.470760774,6.442307692,1.161700267
326,4,high_entitlement,8,20369,8,8324,group2,Is there any way you'd be able to pick me up at the airport?,W,Female,30,high,relationship,EM,5.846153846,1.55152822,3.807692308,1.782688667,4.725490196,1.470760774,6.442307692,1.161700267
327,4,high_entitlement,3,13772,3,65743,group2,Can you pick me up at the airport?,M,Male,26,high,relationship,M,5.846153846,1.55152822,3.807692308,1.782688667,4.725490196,1.470760774,6.442307692,1.161700267
328,4,high_entitlement,7,8056,7,25273,group2,Can you pick me up at the airport?,M,Male,48,high,relationship,M,5.846153846,1.55152822,3.807692308,1.782688667,4.725490196,1.470760774,6.442307692,1.161700267
329,4,high_entitlement,6,57330,6,76012,group2,I'm stuck at the airport.,IS,Male,27,high,relationship,IS,5.846153846,1.55152822,3.807692308,1.782688667,4.725490196,1.470760774,6.442307692,1.161700267
330,4,high_entitlement,8,10443,8,71861,group2,Can you pick me up at the airport?,M,Male,30,high,relationship,M,5.846153846,1.55152822,3.807692308,1.782688667,4.725490196,1.470760774,6.442307692,1.161700267
331,4,high_entitlement,2,8802,2,45177,group2,Is there any way you'd be able to pick me up at the airport?,W,Male,29,high,relationship,EM,5.846153846,1.55152822,3.807692308,1.782688667,4.725490196,1.470760774,6.442307692,1.161700267
332,4,high_entitlement,8,8407,8,44710,group2,I'm stuck at the airport.,IS,Male,24,high,relationship,IS,5.846153846,1.55152822,3.807692308,1.782688667,4.725490196,1.470760774,6.442307692,1.161700267
333,4,high_entitlement,11,19555,11,40239,group2,I need you to give me a ride home.,D,Female,56,high,relationship,D,5.846153846,1.55152822,3.807692308,1.782688667,4.725490196,1.470760774,6.442307692,1.161700267
334,4,high_entitlement,5,-45390,5,9171,group2,Is there any way you'd be able to pick me up at the airport?,W,Male,43,high,relationship,EM,5.846153846,1.55152822,3.807692308,1.782688667,4.725490196,1.470760774,6.442307692,1.161700267
335,4,high_entitlement,8,16052,8,42146,group2,I need you to give me a ride home.,D,Female,34,high,relationship,D,5.846153846,1.55152822,3.807692308,1.782688667,4.725490196,1.470760774,6.442307692,1.161700267
336,4,high_entitlement,7,6884,7,98986,group2,Can you pick me up at the airport?,M,Female,34,high,relationship,M,5.846153846,1.55152822,3.807692308,1.782688667,4.725490196,1.470760774,6.442307692,1.161700267
337,4,high_entitlement,8,3975,8,1977,group2,I'm stuck at the airport.,IS,Male,33,high,relationship,IS,5.846153846,1.55152822,3.807692308,1.782688667,4.725490196,1.470760774,6.442307692,1.161700267
338,4,high_entitlement,7,93255,7,87512,group2,Is there any way you'd be able to pick me up at the airport?,W,Male,38,high,relationship,EM,5.846153846,1.55152822,3.807692308,1.782688667,4.725490196,1.470760774,6.442307692,1.161700267
339,4,high_entitlement,4,8307,4,28542,group2,I need you to give me a ride home.,D,Male,25,high,relationship,D,5.846153846,1.55152822,3.807692308,1.782688667,4.725490196,1.470760774,6.442307692,1.161700267
340,4,high_entitlement,4,12780,4,87775,group2,Can you pick me up at the airport?,M,Male,22,high,relationship,M,5.846153846,1.55152822,3.807692308,1.782688667,4.725490196,1.470760774,6.442307692,1.161700267
341,4,high_entitlement,7,8683,7,90609,group2,Is there any way you'd be able to pick me up at the airport?,W,Female,21,high,relationship,EM,5.846153846,1.55152822,3.807692308,1.782688667,4.725490196,1.470760774,6.442307692,1.161700267
342,4,high_entitlement,4,67088,4,48563,group2,Is there any way you'd be able to pick me up at the airport?,W,Male,25,high,relationship,EM,5.846153846,1.55152822,3.807692308,1.782688667,4.725490196,1.470760774,6.442307692,1.161700267
343,4,high_entitlement,5,3627,5,13778,group2,Is there any way you'd be able to pick me up at the airport?,W,Male,37,high,relationship,EM,5.846153846,1.55152822,3.807692308,1.782688667,4.725490196,1.470760774,6.442307692,1.161700267
344,4,high_entitlement,2,10115,2,74734,group2,Can you pick me up at the airport?,M,Female,31,high,relationship,M,5.846153846,1.55152822,3.807692308,1.782688667,4.725490196,1.470760774,6.442307692,1.161700267
345,4,high_entitlement,7,17069,7,56171,group2,Can you pick me up at the airport?,M,Female,48,high,relationship,M,5.846153846,1.55152822,3.807692308,1.782688667,4.725490196,1.470760774,6.442307692,1.161700267
346,4,high_entitlement,2,18619,2,36333,group2,Can you pick me up at the airport?,M,Female,42,high,relationship,M,5.846153846,1.55152822,3.807692308,1.782688667,4.725490196,1.470760774,6.442307692,1.161700267
347,4,high_entitlement,6,21268,6,16670,group2,Can you pick me up at the airport?,M,Male,30,high,relationship,M,5.846153846,1.55152822,3.807692308,1.782688667,4.725490196,1.470760774,6.442307692,1.161700267
348,4,high_entitlement,7,12539,7,94407,group2,Can you pick me up at the airport?,M,Male,27,high,relationship,M,5.846153846,1.55152822,3.807692308,1.782688667,4.725490196,1.470760774,6.442307692,1.161700267
349,4,high_entitlement,2,33015,2,91548,group2,I'm stuck at the airport.,IS,Male,26,high,relationship,IS,5.846153846,1.55152822,3.807692308,1.782688667,4.725490196,1.470760774,6.442307692,1.161700267
350,4,high_entitlement,3,6908,3,45610,group2,Is there any way you'd be able to pick me up at the airport?,W,Female,21,high,relationship,EM,5.846153846,1.55152822,3.807692308,1.782688667,4.725490196,1.470760774,6.442307692,1.161700267
351,4,high_entitlement,11,2290,11,1593,group2,I need you to give me a ride home.,D,Male,25,high,relationship,D,5.846153846,1.55152822,3.807692308,1.782688667,4.725490196,1.470760774,6.442307692,1.161700267
352,4,high_entitlement,4,19569,4,85567,group2,Is there any way you'd be able to pick me up at the airport?,W,Male,33,high,relationship,EM,5.846153846,1.55152822,3.807692308,1.782688667,4.725490196,1.470760774,6.442307692,1.161700267
353,4,high_entitlement,3,19249,3,7349,group2,Can you pick me up at the airport?,M,Male,33,high,relationship,M,5.846153846,1.55152822,3.807692308,1.782688667,4.725490196,1.470760774,6.442307692,1.161700267
354,4,high_entitlement,9,15797,9,50863,group2,Is there any way you'd be able to pick me up at the airport?,W,Male,23,high,relationship,EM,5.846153846,1.55152822,3.807692308,1.782688667,4.725490196,1.470760774,6.442307692,1.161700267
355,4,high_entitlement,7,18498,7,90079,group2,Is there any way you'd be able to pick me up at the airport?,W,Male,39,high,relationship,EM,5.846153846,1.55152822,3.807692308,1.782688667,4.725490196,1.470760774,6.442307692,1.161700267
356,4,high_entitlement,4,24561,4,70928,group2,Is there any way you'd be able to pick me up at the airport?,W,Male,30,high,relationship,EM,5.846153846,1.55152822,3.807692308,1.782688667,4.725490196,1.470760774,6.442307692,1.161700267
357,4,high_entitlement,5,3002,5,83161,group2,I need you to give me a ride home.,D,Male,30,high,relationship,D,5.846153846,1.55152822,3.807692308,1.782688667,4.725490196,1.470760774,6.442307692,1.161700267
358,4,high_entitlement,11,3244,11,75614,group2,I need you to give me a ride home.,D,Male,47,high,relationship,D,5.846153846,1.55152822,3.807692308,1.782688667,4.725490196,1.470760774,6.442307692,1.161700267
359,4,high_entitlement,8,16090,8,19424,group2,I need you to give me a ride home.,D,Female,52,high,relationship,D,5.846153846,1.55152822,3.807692308,1.782688667,4.725490196,1.470760774,6.442307692,1.161700267
360,4,high_entitlement,9,8424,9,28114,group2,Can you pick me up at the airport?,M,Female,40,high,relationship,M,5.846153846,1.55152822,3.807692308,1.782688667,4.725490196,1.470760774,6.442307692,1.161700267
361,4,high_entitlement,8,7641,8,74166,group2,Can you pick me up at the airport?,M,Male,25,high,relationship,M,5.846153846,1.55152822,3.807692308,1.782688667,4.725490196,1.470760774,6.442307692,1.161700267
362,4,high_entitlement,2,64040,2,79859,group2,Is there any way you'd be able to pick me up at the airport?,W,Female,27,high,relationship,EM,5.846153846,1.55152822,3.807692308,1.782688667,4.725490196,1.470760774,6.442307692,1.161700267
363,4,high_entitlement,4,13980,4,5514,group2,Is there any way you'd be able to pick me up at the airport?,W,Female,47,high,relationship,EM,5.846153846,1.55152822,3.807692308,1.782688667,4.725490196,1.470760774,6.442307692,1.161700267
364,4,high_entitlement,3,1944,3,73328,group2,Can you pick me up at the airport?,M,Male,25,high,relationship,M,5.846153846,1.55152822,3.807692308,1.782688667,4.725490196,1.470760774,6.442307692,1.161700267
365,4,high_entitlement,8,44271,8,86881,group2,I'm stuck at the airport.,IS,Female,20,high,relationship,IS,5.846153846,1.55152822,3.807692308,1.782688667,4.725490196,1.470760774,6.442307692,1.161700267
366,4,high_entitlement,4,20165,4,81470,group2,I need you to give me a ride home.,D,Male,36,high,relationship,D,5.846153846,1.55152822,3.807692308,1.782688667,4.725490196,1.470760774,6.442307692,1.161700267
367,4,high_entitlement,5,23636,5,97151,group2,Can you pick me up at the airport?,M,Male,27,high,relationship,M,5.846153846,1.55152822,3.807692308,1.782688667,4.725490196,1.470760774,6.442307692,1.161700267
368,4,high_entitlement,6,6356,6,74278,group2,I need you to give me a ride home.,D,Male,25,high,relationship,D,5.846153846,1.55152822,3.807692308,1.782688667,4.725490196,1.470760774,6.442307692,1.161700267
369,4,high_entitlement,5,16952,5,43477,group2,I need you to give me a ride home.,D,Male,26,high,relationship,D,5.846153846,1.55152822,3.807692308,1.782688667,4.725490196,1.470760774,6.442307692,1.161700267
370,4,high_entitlement,9,18726,9,55991,group2,Is there any way you'd be able to pick me up at the airport?,W,Female,27,high,relationship,EM,5.846153846,1.55152822,3.807692308,1.782688667,4.725490196,1.470760774,6.442307692,1.161700267
371,4,low_entitlement,10,9205,10,71391,group1,Is there any way you'd be able to pick me up at the airport?,W,Male,29,low,relationship,EM,3.375,1.897646919,5.466666667,1.235828761,5.145833333,1.515727244,3.895833333,1.372055196
372,4,low_entitlement,8,6490,8,8216,group1,Can you pick me up at the airport?,M,Male,29,low,relationship,M,3.375,1.897646919,5.466666667,1.235828761,5.145833333,1.515727244,3.895833333,1.372055196
373,4,low_entitlement,4,2286,4,64887,group1,I'm stuck at the airport.,IS,Female,30,low,relationship,IS,3.375,1.897646919,5.466666667,1.235828761,5.145833333,1.515727244,3.895833333,1.372055196
374,4,low_entitlement,6,12666,6,24718,group1,Is there any way you'd be able to pick me up at the airport?,W,Female,40,low,relationship,EM,3.375,1.897646919,5.466666667,1.235828761,5.145833333,1.515727244,3.895833333,1.372055196
375,4,low_entitlement,10,2218,10,20794,group1,Is there any way you'd be able to pick me up at the airport?,W,Female,33,low,relationship,EM,3.375,1.897646919,5.466666667,1.235828761,5.145833333,1.515727244,3.895833333,1.372055196
376,4,low_entitlement,2,15369,2,56292,group1,Is there any way you'd be able to pick me up at the airport?,W,Female,31,low,relationship,EM,3.375,1.897646919,5.466666667,1.235828761,5.145833333,1.515727244,3.895833333,1.372055196
377,4,low_entitlement,8,19104,8,16711,group1,Is there any way you'd be able to pick me up at the airport?,W,Female,42,low,relationship,EM,3.375,1.897646919,5.466666667,1.235828761,5.145833333,1.515727244,3.895833333,1.372055196
378,4,low_entitlement,9,18293,9,80148,group1,Is there any way you'd be able to pick me up at the airport?,W,Female,33,low,relationship,EM,3.375,1.897646919,5.466666667,1.235828761,5.145833333,1.515727244,3.895833333,1.372055196
379,4,low_entitlement,11,1584,11,11674,group1,I'm stuck at the airport.,IS,Male,41,low,relationship,IS,3.375,1.897646919,5.466666667,1.235828761,5.145833333,1.515727244,3.895833333,1.372055196
380,4,low_entitlement,8,24327,8,95061,group1,Is there any way you'd be able to pick me up at the airport?,W,Female,33,low,relationship,EM,3.375,1.897646919,5.466666667,1.235828761,5.145833333,1.515727244,3.895833333,1.372055196
381,4,low_entitlement,5,8362,5,94652,group1,Is there any way you'd be able to pick me up at the airport?,W,Female,58,low,relationship,EM,3.375,1.897646919,5.466666667,1.235828761,5.145833333,1.515727244,3.895833333,1.372055196
382,4,low_entitlement,2,18698,2,33903,group1,Can you pick me up at the airport?,M,Female,32,low,relationship,M,3.375,1.897646919,5.466666667,1.235828761,5.145833333,1.515727244,3.895833333,1.372055196
383,4,low_entitlement,3,12762,3,57860,group1,Is there any way you'd be able to pick me up at the airport?,W,Male,35,low,relationship,EM,3.375,1.897646919,5.466666667,1.235828761,5.145833333,1.515727244,3.895833333,1.372055196
384,4,low_entitlement,5,44983,5,90211,group1,I need you to give me a ride home.,D,Female,27,low,relationship,D,3.375,1.897646919,5.466666667,1.235828761,5.145833333,1.515727244,3.895833333,1.372055196
385,4,low_entitlement,8,10314,8,81283,group1,I'm stuck at the airport.,IS,Female,30,low,relationship,IS,3.375,1.897646919,5.466666667,1.235828761,5.145833333,1.515727244,3.895833333,1.372055196
386,4,low_entitlement,11,5966,11,89974,group1,Can you pick me up at the airport?,M,Female,25,low,relationship,M,3.375,1.897646919,5.466666667,1.235828761,5.145833333,1.515727244,3.895833333,1.372055196
387,4,low_entitlement,11,12754,11,87155,group1,Can you pick me up at the airport?,M,Male,26,low,relationship,M,3.375,1.897646919,5.466666667,1.235828761,5.145833333,1.515727244,3.895833333,1.372055196
388,4,low_entitlement,6,16471,6,42017,group1,Is there any way you'd be able to pick me up at the airport?,W,Female,37,low,relationship,EM,3.375,1.897646919,5.466666667,1.235828761,5.145833333,1.515727244,3.895833333,1.372055196
389,4,low_entitlement,3,20441,3,61519,group1,Is there any way you'd be able to pick me up at the airport?,W,Male,37,low,relationship,EM,3.375,1.897646919,5.466666667,1.235828761,5.145833333,1.515727244,3.895833333,1.372055196
390,4,low_entitlement,4,43041,4,55304,group1,Is there any way you'd be able to pick me up at the airport?,W,Female,43,low,relationship,EM,3.375,1.897646919,5.466666667,1.235828761,5.145833333,1.515727244,3.895833333,1.372055196
391,4,low_entitlement,3,8411,3,24995,group1,Is there any way you'd be able to pick me up at the airport?,W,Male,30,low,relationship,EM,3.375,1.897646919,5.466666667,1.235828761,5.145833333,1.515727244,3.895833333,1.372055196
392,4,low_entitlement,9,61157,9,66682,group1,I need you to give me a ride home.,D,Female,29,low,relationship,D,3.375,1.897646919,5.466666667,1.235828761,5.145833333,1.515727244,3.895833333,1.372055196
393,4,low_entitlement,8,4077,8,87326,group1,Is there any way you'd be able to pick me up at the airport?,W,Female,22,low,relationship,EM,3.375,1.897646919,5.466666667,1.235828761,5.145833333,1.515727244,3.895833333,1.372055196
394,4,low_entitlement,5,23107,5,58332,group1,Is there any way you'd be able to pick me up at the airport?,W,Male,65,low,relationship,EM,3.375,1.897646919,5.466666667,1.235828761,5.145833333,1.515727244,3.895833333,1.372055196
395,4,low_entitlement,2,23156,2,32379,group1,Can you pick me up at the airport?,M,Male,23,low,relationship,M,3.375,1.897646919,5.466666667,1.235828761,5.145833333,1.515727244,3.895833333,1.372055196
396,4,low_entitlement,6,3522,6,67700,group1,I need you to give me a ride home.,D,Male,29,low,relationship,D,3.375,1.897646919,5.466666667,1.235828761,5.145833333,1.515727244,3.895833333,1.372055196
397,4,low_entitlement,6,1453,6,97756,group1,Can you pick me up at the airport?,M,Male,31,low,relationship,M,3.375,1.897646919,5.466666667,1.235828761,5.145833333,1.515727244,3.895833333,1.372055196
398,4,low_entitlement,10,46040,10,42306,group1,Is there any way you'd be able to pick me up at the airport?,W,Female,49,low,relationship,EM,3.375,1.897646919,5.466666667,1.235828761,5.145833333,1.515727244,3.895833333,1.372055196
399,4,low_entitlement,4,6164,4,34496,group1,Is there any way you'd be able to pick me up at the airport?,W,Male,27,low,relationship,EM,3.375,1.897646919,5.466666667,1.235828761,5.145833333,1.515727244,3.895833333,1.372055196
400,4,low_entitlement,2,34366,2,45852,group1,I need you to give me a ride home.,D,Male,27,low,relationship,D,3.375,1.897646919,5.466666667,1.235828761,5.145833333,1.515727244,3.895833333,1.372055196
401,4,low_entitlement,5,441696,5,7044,group1,I need you to give me a ride home.,D,Female,23,low,relationship,D,3.375,1.897646919,5.466666667,1.235828761,5.145833333,1.515727244,3.895833333,1.372055196
402,4,low_entitlement,7,12602,7,2471,group1,Is there any way you'd be able to pick me up at the airport?,W,Female,59,low,relationship,EM,3.375,1.897646919,5.466666667,1.235828761,5.145833333,1.515727244,3.895833333,1.372055196
403,4,low_entitlement,7,7505,7,24041,group1,I'm stuck at the airport.,IS,Male,39,low,relationship,IS,3.375,1.897646919,5.466666667,1.235828761,5.145833333,1.515727244,3.895833333,1.372055196
404,4,low_entitlement,8,6149,8,46162,group1,Is there any way you'd be able to pick me up at the airport?,W,Male,35,low,relationship,EM,3.375,1.897646919,5.466666667,1.235828761,5.145833333,1.515727244,3.895833333,1.372055196
405,5,high_entitlement,4,14039,4,24718,group1,Send someone to help immediately.,D,Female,40,high,institution,D,5.666666667,2.107063433,3.085106383,2.272996368,5.208333333,1.687984236,2.520833333,1.989221844
406,5,high_entitlement,6,8558,6,87326,group1,Send someone to help immediately.,D,Female,22,high,institution,D,5.666666667,2.107063433,3.085106383,2.272996368,5.208333333,1.687984236,2.520833333,1.989221844
407,5,high_entitlement,10,39655,10,7044,group1,Send someone to help immediately.,D,Female,23,high,institution,D,5.666666667,2.107063433,3.085106383,2.272996368,5.208333333,1.687984236,2.520833333,1.989221844
408,5,high_entitlement,3,15737,3,20794,group1,Send someone to help immediately.,D,Female,33,high,institution,D,5.666666667,2.107063433,3.085106383,2.272996368,5.208333333,1.687984236,2.520833333,1.989221844
409,5,high_entitlement,8,11652,8,66682,group1,Would it be at all possible to send help?,W,Female,29,high,institution,EM,5.666666667,2.107063433,3.085106383,2.272996368,5.208333333,1.687984236,2.520833333,1.989221844
410,5,high_entitlement,2,18749,2,46162,group1,Send someone to help immediately.,D,Male,35,high,institution,D,5.666666667,2.107063433,3.085106383,2.272996368,5.208333333,1.687984236,2.520833333,1.989221844
411,5,high_entitlement,11,7731,11,24995,group1,Send someone to help immediately.,D,Male,30,high,institution,D,5.666666667,2.107063433,3.085106383,2.272996368,5.208333333,1.687984236,2.520833333,1.989221844
412,5,high_entitlement,10,20250,10,95061,group1,Send someone to help immediately.,D,Female,33,high,institution,D,5.666666667,2.107063433,3.085106383,2.272996368,5.208333333,1.687984236,2.520833333,1.989221844
413,5,high_entitlement,2,28727,2,67700,group1,Send someone to help immediately.,D,Male,29,high,institution,D,5.666666667,2.107063433,3.085106383,2.272996368,5.208333333,1.687984236,2.520833333,1.989221844
414,5,high_entitlement,3,1700,3,11674,group1,Would it be at all possible to send help?,W,Male,41,high,institution,EM,5.666666667,2.107063433,3.085106383,2.272996368,5.208333333,1.687984236,2.520833333,1.989221844
415,5,high_entitlement,6,22108,6,16711,group1,Send someone to help immediately.,D,Female,42,high,institution,D,5.666666667,2.107063433,3.085106383,2.272996368,5.208333333,1.687984236,2.520833333,1.989221844
416,5,high_entitlement,2,15127,2,24041,group1,There's an intruder.,IS,Male,39,high,institution,IS,5.666666667,2.107063433,3.085106383,2.272996368,5.208333333,1.687984236,2.520833333,1.989221844
417,5,high_entitlement,4,17644,4,33903,group1,Could you please send help?,M,Female,32,high,institution,M,5.666666667,2.107063433,3.085106383,2.272996368,5.208333333,1.687984236,2.520833333,1.989221844
418,5,high_entitlement,9,8284,9,94652,group1,Send someone to help immediately.,D,Female,58,high,institution,D,5.666666667,2.107063433,3.085106383,2.272996368,5.208333333,1.687984236,2.520833333,1.989221844
419,5,high_entitlement,11,19937,11,55304,group1,Send someone to help immediately.,D,Female,43,high,institution,D,5.666666667,2.107063433,3.085106383,2.272996368,5.208333333,1.687984236,2.520833333,1.989221844
420,5,high_entitlement,9,53943,9,90211,group1,Send someone to help immediately.,D,Female,27,high,institution,D,5.666666667,2.107063433,3.085106383,2.272996368,5.208333333,1.687984236,2.520833333,1.989221844
421,5,high_entitlement,5,19162,5,2471,group1,Send someone to help immediately.,D,Female,59,high,institution,D,5.666666667,2.107063433,3.085106383,2.272996368,5.208333333,1.687984236,2.520833333,1.989221844
422,5,high_entitlement,8,2533,8,64887,group1,Send someone to help immediately.,D,Female,30,high,institution,D,5.666666667,2.107063433,3.085106383,2.272996368,5.208333333,1.687984236,2.520833333,1.989221844
423,5,high_entitlement,6,21600,6,61519,group1,There's an intruder.,IS,Male,37,high,institution,IS,5.666666667,2.107063433,3.085106383,2.272996368,5.208333333,1.687984236,2.520833333,1.989221844
424,5,high_entitlement,2,11882,2,71391,group1,Could you please send help?,M,Male,29,high,institution,M,5.666666667,2.107063433,3.085106383,2.272996368,5.208333333,1.687984236,2.520833333,1.989221844
425,5,high_entitlement,7,36090,7,58332,group1,There's an intruder.,IS,Male,65,high,institution,IS,5.666666667,2.107063433,3.085106383,2.272996368,5.208333333,1.687984236,2.520833333,1.989221844
426,5,high_entitlement,3,16531,3,56292,group1,There's an intruder.,IS,Female,31,high,institution,IS,5.666666667,2.107063433,3.085106383,2.272996368,5.208333333,1.687984236,2.520833333,1.989221844
427,5,high_entitlement,9,30132,9,42017,group1,There's an intruder.,IS,Female,37,high,institution,IS,5.666666667,2.107063433,3.085106383,2.272996368,5.208333333,1.687984236,2.520833333,1.989221844
428,5,high_entitlement,5,18132,5,32379,group1,There's an intruder.,IS,Male,23,high,institution,IS,5.666666667,2.107063433,3.085106383,2.272996368,5.208333333,1.687984236,2.520833333,1.989221844
429,5,high_entitlement,2,20322,2,81283,group1,There's an intruder.,IS,Female,30,high,institution,IS,5.666666667,2.107063433,3.085106383,2.272996368,5.208333333,1.687984236,2.520833333,1.989221844
430,5,high_entitlement,7,7333,7,89974,group1,Could you please send help?,M,Female,25,high,institution,M,5.666666667,2.107063433,3.085106383,2.272996368,5.208333333,1.687984236,2.520833333,1.989221844
431,5,high_entitlement,10,16139,10,57860,group1,Send someone to help immediately.,D,Male,35,high,institution,D,5.666666667,2.107063433,3.085106383,2.272996368,5.208333333,1.687984236,2.520833333,1.989221844
432,5,high_entitlement,11,1629,11,97756,group1,Would it be at all possible to send help?,W,Male,31,high,institution,EM,5.666666667,2.107063433,3.085106383,2.272996368,5.208333333,1.687984236,2.520833333,1.989221844
433,5,high_entitlement,4,12951,4,42306,group1,Send someone to help immediately.,D,Female,49,high,institution,D,5.666666667,2.107063433,3.085106383,2.272996368,5.208333333,1.687984236,2.520833333,1.989221844
434,5,high_entitlement,4,4409,4,8216,group1,Could you please send help?,M,Male,29,high,institution,M,5.666666667,2.107063433,3.085106383,2.272996368,5.208333333,1.687984236,2.520833333,1.989221844
435,5,high_entitlement,10,19221,10,87155,group1,Send someone to help immediately.,D,Male,26,high,institution,D,5.666666667,2.107063433,3.085106383,2.272996368,5.208333333,1.687984236,2.520833333,1.989221844
436,5,high_entitlement,4,33957,4,80148,group1,Send someone to help immediately.,D,Female,33,high,institution,D,5.666666667,2.107063433,3.085106383,2.272996368,5.208333333,1.687984236,2.520833333,1.989221844
437,5,high_entitlement,6,3040,6,34496,group1,Would it be at all possible to send help?,W,Male,27,high,institution,EM,5.666666667,2.107063433,3.085106383,2.272996368,5.208333333,1.687984236,2.520833333,1.989221844
438,5,high_entitlement,6,11985,6,45852,group1,Would it be at all possible to send help?,W,Male,27,high,institution,EM,5.666666667,2.107063433,3.085106383,2.272996368,5.208333333,1.687984236,2.520833333,1.989221844
439,5,low_entitlement,11,2205,11,91548,group2,Could you please send help?,M,Male,26,low,institution,M,4.698113208,1.866556946,4.188679245,2.08526519,5.339622642,1.807499295,2.452830189,2.080736165
440,5,low_entitlement,8,1089,8,13778,group2,Could you please send help?,M,Male,37,low,institution,M,4.698113208,1.866556946,4.188679245,2.08526519,5.339622642,1.807499295,2.452830189,2.080736165
441,5,low_entitlement,2,186100,2,1593,group2,My cat is stuck in a tree.,IS,Male,25,low,institution,IS,4.698113208,1.866556946,4.188679245,2.08526519,5.339622642,1.807499295,2.452830189,2.080736165
442,5,low_entitlement,11,5200,11,74166,group2,My cat is stuck in a tree.,IS,Male,25,low,institution,IS,4.698113208,1.866556946,4.188679245,2.08526519,5.339622642,1.807499295,2.452830189,2.080736165
443,5,low_entitlement,10,16328,10,94407,group2,Could you please send help?,M,Male,27,low,institution,M,4.698113208,1.866556946,4.188679245,2.08526519,5.339622642,1.807499295,2.452830189,2.080736165
444,5,low_entitlement,6,26039,6,9171,group2,My cat is stuck in a tree.,IS,Male,43,low,institution,IS,4.698113208,1.866556946,4.188679245,2.08526519,5.339622642,1.807499295,2.452830189,2.080736165
445,5,low_entitlement,2,32161,2,86881,group2,My cat is stuck in a tree.,IS,Female,20,low,institution,IS,4.698113208,1.866556946,4.188679245,2.08526519,5.339622642,1.807499295,2.452830189,2.080736165
446,5,low_entitlement,7,34587,7,55991,group2,Could you please send help?,M,Female,27,low,institution,M,4.698113208,1.866556946,4.188679245,2.08526519,5.339622642,1.807499295,2.452830189,2.080736165
447,5,low_entitlement,4,10081,4,25273,group2,Could you please send help?,M,Male,48,low,institution,M,4.698113208,1.866556946,4.188679245,2.08526519,5.339622642,1.807499295,2.452830189,2.080736165
448,5,low_entitlement,6,12091,6,40239,group2,Send someone to help immediately.,D,Female,56,low,institution,D,4.698113208,1.866556946,4.188679245,2.08526519,5.339622642,1.807499295,2.452830189,2.080736165
449,5,low_entitlement,6,14416,6,71861,group2,Would it be at all possible to send help?,W,Male,30,low,institution,EM,4.698113208,1.866556946,4.188679245,2.08526519,5.339622642,1.807499295,2.452830189,2.080736165
450,5,low_entitlement,10,3855,10,74734,group2,My cat is stuck in a tree.,IS,Female,31,low,institution,IS,4.698113208,1.866556946,4.188679245,2.08526519,5.339622642,1.807499295,2.452830189,2.080736165
451,5,low_entitlement,5,8930,5,90609,group2,Would it be at all possible to send help?,W,Female,21,low,institution,EM,4.698113208,1.866556946,4.188679245,2.08526519,5.339622642,1.807499295,2.452830189,2.080736165
452,5,low_entitlement,8,6971,8,45610,group2,Could you please send help?,M,Female,21,low,institution,M,4.698113208,1.866556946,4.188679245,2.08526519,5.339622642,1.807499295,2.452830189,2.080736165
453,5,low_entitlement,7,6845,7,76012,group2,Could you please send help?,M,Male,27,low,institution,M,4.698113208,1.866556946,4.188679245,2.08526519,5.339622642,1.807499295,2.452830189,2.080736165
454,5,low_entitlement,9,6764,9,98986,group2,Could you please send help?,M,Female,34,low,institution,M,4.698113208,1.866556946,4.188679245,2.08526519,5.339622642,1.807499295,2.452830189,2.080736165
455,5,low_entitlement,8,5658,8,87512,group2,Could you please send help?,M,Male,38,low,institution,M,4.698113208,1.866556946,4.188679245,2.08526519,5.339622642,1.807499295,2.452830189,2.080736165
456,5,low_entitlement,6,20289,6,70928,group2,Could you please send help?,M,Male,30,low,institution,M,4.698113208,1.866556946,4.188679245,2.08526519,5.339622642,1.807499295,2.452830189,2.080736165
457,5,low_entitlement,10,11066,10,85567,group2,My cat is stuck in a tree.,IS,Male,33,low,institution,IS,4.698113208,1.866556946,4.188679245,2.08526519,5.339622642,1.807499295,2.452830189,2.080736165
458,5,low_entitlement,10,2392,10,83161,group2,Would it be at all possible to send help?,W,Male,30,low,institution,EM,4.698113208,1.866556946,4.188679245,2.08526519,5.339622642,1.807499295,2.452830189,2.080736165
459,5,low_entitlement,11,17381,11,79859,group2,My cat is stuck in a tree.,IS,Female,27,low,institution,IS,4.698113208,1.866556946,4.188679245,2.08526519,5.339622642,1.807499295,2.452830189,2.080736165
460,5,low_entitlement,5,23771,5,16670,group2,Could you please send help?,M,Male,30,low,institution,M,4.698113208,1.866556946,4.188679245,2.08526519,5.339622642,1.807499295,2.452830189,2.080736165
461,5,low_entitlement,7,13636,7,7349,group2,Would it be at all possible to send help?,W,Male,33,low,institution,EM,4.698113208,1.866556946,4.188679245,2.08526519,5.339622642,1.807499295,2.452830189,2.080736165
