,stimNum,stimType,X,rt,url,trial_type,trial_index,time_elapsed,internal_node_id,subject,group,type.x,formatting,answer,Gender,Age,condition,situation,judgment,formatting.relabel,mean_entitlement,sd_entitlement,mean_imposition,sd_imposition,mean_power,sd_power,mean_distance,sd_distance
1,1,high_entitlement,6,1590,,survey-likert,6,37210,0.0-6.0,1147,group2,interaction,indirect,3,Male,20,high,interaction,-1.252574197,indirect,5.25,1.850819255,3.6875,1.652287261,4.333333333,1.310080935,4.708333333,1.090741176
2,1,high_entitlement,9,34726,,survey-likert,9,278088,0.0-9.0,50739,group4,interaction,wonder,5,Female,38,high,interaction,0.747425803,embedded modal,5.25,1.850819255,3.6875,1.652287261,4.333333333,1.310080935,4.708333333,1.090741176
3,1,high_entitlement,8,16402,,survey-likert,8,217116,0.0-8.0,67329,group3,interaction,modal,4,Female,28,high,interaction,-0.252574197,modal,5.25,1.850819255,3.6875,1.652287261,4.333333333,1.310080935,4.708333333,1.090741176
4,1,high_entitlement,7,4469,,survey-likert,7,54233,0.0-7.0,98554,group1,interaction,direct,3,Male,36,high,interaction,-1.252574197,direct,5.25,1.850819255,3.6875,1.652287261,4.333333333,1.310080935,4.708333333,1.090741176
5,1,high_entitlement,5,27007,,survey-likert,5,248578,0.0-5.0,65042,group2,interaction,indirect,3,Male,31,high,interaction,-1.252574197,indirect,5.25,1.850819255,3.6875,1.652287261,4.333333333,1.310080935,4.708333333,1.090741176
6,1,high_entitlement,19,5143,,survey-likert,19,175724,0.0-19.0,45596,group2,interaction,indirect,0,Male,34,high,interaction,-4.252574197,indirect,5.25,1.850819255,3.6875,1.652287261,4.333333333,1.310080935,4.708333333,1.090741176
7,1,high_entitlement,13,4035,,survey-likert,13,191978,0.0-13.0,87176,group1,interaction,direct,6,Male,31,high,interaction,1.747425803,direct,5.25,1.850819255,3.6875,1.652287261,4.333333333,1.310080935,4.708333333,1.090741176
8,1,high_entitlement,19,22228,,survey-likert,19,445111,0.0-19.0,29160,group2,interaction,indirect,4,Male,32,high,interaction,-0.252574197,indirect,5.25,1.850819255,3.6875,1.652287261,4.333333333,1.310080935,4.708333333,1.090741176
9,1,high_entitlement,19,2937,,survey-likert,19,163056,0.0-19.0,55429,group4,interaction,wonder,6,Female,23,high,interaction,1.747425803,embedded modal,5.25,1.850819255,3.6875,1.652287261,4.333333333,1.310080935,4.708333333,1.090741176
10,1,high_entitlement,18,14805,,survey-likert,18,738875,0.0-18.0,25173,group1,interaction,direct,6,Male,32,high,interaction,1.747425803,direct,5.25,1.850819255,3.6875,1.652287261,4.333333333,1.310080935,4.708333333,1.090741176
11,1,high_entitlement,18,11338,,survey-likert,18,271497,0.0-18.0,73278,group4,interaction,wonder,6,Female,59,high,interaction,1.747425803,embedded modal,5.25,1.850819255,3.6875,1.652287261,4.333333333,1.310080935,4.708333333,1.090741176
12,1,high_entitlement,18,9969,,survey-likert,18,180280,0.0-18.0,96726,group2,interaction,indirect,3,Female,24,high,interaction,-1.252574197,indirect,5.25,1.850819255,3.6875,1.652287261,4.333333333,1.310080935,4.708333333,1.090741176
13,1,high_entitlement,12,6112,,survey-likert,12,156881,0.0-12.0,90363,group1,interaction,direct,5,Male,35,high,interaction,0.747425803,direct,5.25,1.850819255,3.6875,1.652287261,4.333333333,1.310080935,4.708333333,1.090741176
14,1,high_entitlement,8,16078,,survey-likert,8,176185,0.0-8.0,63264,group3,interaction,modal,6,Female,28,high,interaction,1.747425803,modal,5.25,1.850819255,3.6875,1.652287261,4.333333333,1.310080935,4.708333333,1.090741176
15,1,high_entitlement,11,11657,,survey-likert,11,270997,0.0-11.0,45082,group3,interaction,modal,5,Female,51,high,interaction,0.747425803,modal,5.25,1.850819255,3.6875,1.652287261,4.333333333,1.310080935,4.708333333,1.090741176
16,1,high_entitlement,15,8475,,survey-likert,15,179900,0.0-15.0,38125,group4,interaction,wonder,6,Female,33,high,interaction,1.747425803,embedded modal,5.25,1.850819255,3.6875,1.652287261,4.333333333,1.310080935,4.708333333,1.090741176
17,1,high_entitlement,11,6933,,survey-likert,11,82317,0.0-11.0,1536,group2,interaction,indirect,4,Male,34,high,interaction,-0.252574197,indirect,5.25,1.850819255,3.6875,1.652287261,4.333333333,1.310080935,4.708333333,1.090741176
18,1,high_entitlement,13,4497,,survey-likert,13,161479,0.0-13.0,23900,group2,interaction,indirect,1,Male,27,high,interaction,-3.252574197,indirect,5.25,1.850819255,3.6875,1.652287261,4.333333333,1.310080935,4.708333333,1.090741176
19,1,high_entitlement,12,9836,,survey-likert,12,144828,0.0-12.0,50886,group2,interaction,indirect,3,Female,44,high,interaction,-1.252574197,indirect,5.25,1.850819255,3.6875,1.652287261,4.333333333,1.310080935,4.708333333,1.090741176
20,1,high_entitlement,8,11877,,survey-likert,8,103488,0.0-8.0,67486,group1,interaction,direct,3,Male,26,high,interaction,-1.252574197,direct,5.25,1.850819255,3.6875,1.652287261,4.333333333,1.310080935,4.708333333,1.090741176
21,1,high_entitlement,2,38287,,survey-likert,2,115306,0.0-2.0,87309,group1,interaction,direct,2,Male,50,high,interaction,-2.252574197,direct,5.25,1.850819255,3.6875,1.652287261,4.333333333,1.310080935,4.708333333,1.090741176
22,1,high_entitlement,8,13767,,survey-likert,8,114472,0.0-8.0,65327,group2,interaction,indirect,5,Female,47,high,interaction,0.747425803,indirect,5.25,1.850819255,3.6875,1.652287261,4.333333333,1.310080935,4.708333333,1.090741176
23,1,high_entitlement,19,15870,,survey-likert,19,348347,0.0-19.0,14583,group2,interaction,indirect,6,Male,32,high,interaction,1.747425803,indirect,5.25,1.850819255,3.6875,1.652287261,4.333333333,1.310080935,4.708333333,1.090741176
24,1,high_entitlement,7,6901,,survey-likert,7,227435,0.0-7.0,29579,group1,interaction,direct,3,Male,28,high,interaction,-1.252574197,direct,5.25,1.850819255,3.6875,1.652287261,4.333333333,1.310080935,4.708333333,1.090741176
25,1,high_entitlement,8,27158,,survey-likert,8,277400,0.0-8.0,55610,group1,interaction,direct,5,Male,70,high,interaction,0.747425803,direct,5.25,1.850819255,3.6875,1.652287261,4.333333333,1.310080935,4.708333333,1.090741176
26,1,high_entitlement,4,11713,,survey-likert,4,62588,0.0-4.0,53235,group1,interaction,direct,6,Male,29,high,interaction,1.747425803,direct,5.25,1.850819255,3.6875,1.652287261,4.333333333,1.310080935,4.708333333,1.090741176
27,1,high_entitlement,12,12354,,survey-likert,12,178791,0.0-12.0,74284,group4,interaction,wonder,3,Male,55,high,interaction,-1.252574197,embedded modal,5.25,1.850819255,3.6875,1.652287261,4.333333333,1.310080935,4.708333333,1.090741176
28,1,high_entitlement,3,11593,,survey-likert,3,52324,0.0-3.0,97825,group4,interaction,wonder,6,Male,30,high,interaction,1.747425803,embedded modal,5.25,1.850819255,3.6875,1.652287261,4.333333333,1.310080935,4.708333333,1.090741176
29,1,high_entitlement,8,1836,,survey-likert,8,99017,0.0-8.0,17266,group1,interaction,direct,4,Male,26,high,interaction,-0.252574197,direct,5.25,1.850819255,3.6875,1.652287261,4.333333333,1.310080935,4.708333333,1.090741176
30,1,high_entitlement,13,3323,,survey-likert,13,202480,0.0-13.0,45552,group2,interaction,indirect,5,Male,24,high,interaction,0.747425803,indirect,5.25,1.850819255,3.6875,1.652287261,4.333333333,1.310080935,4.708333333,1.090741176
31,1,high_entitlement,16,3025,,survey-likert,16,191023,0.0-16.0,15639,group3,interaction,modal,6,Male,25,high,interaction,1.747425803,modal,5.25,1.850819255,3.6875,1.652287261,4.333333333,1.310080935,4.708333333,1.090741176
32,1,high_entitlement,4,1476,,survey-likert,4,287706,0.0-4.0,83487,group3,interaction,modal,4,Female,28,high,interaction,-0.252574197,modal,5.25,1.850819255,3.6875,1.652287261,4.333333333,1.310080935,4.708333333,1.090741176
33,1,high_entitlement,4,6661,,survey-likert,4,67265,0.0-4.0,2524,group4,interaction,wonder,5,Female,34,high,interaction,0.747425803,embedded modal,5.25,1.850819255,3.6875,1.652287261,4.333333333,1.310080935,4.708333333,1.090741176
34,1,high_entitlement,14,25111,,survey-likert,14,334826,0.0-14.0,24477,group3,interaction,modal,6,Male,55,high,interaction,1.747425803,modal,5.25,1.850819255,3.6875,1.652287261,4.333333333,1.310080935,4.708333333,1.090741176
35,1,high_entitlement,10,12664,,survey-likert,10,199527,0.0-10.0,68260,group1,interaction,direct,4,Female,37,high,interaction,-0.252574197,direct,5.25,1.850819255,3.6875,1.652287261,4.333333333,1.310080935,4.708333333,1.090741176
36,1,high_entitlement,17,7730,,survey-likert,17,214494,0.0-17.0,19384,group2,interaction,indirect,4,Male,33,high,interaction,-0.252574197,indirect,5.25,1.850819255,3.6875,1.652287261,4.333333333,1.310080935,4.708333333,1.090741176
37,1,high_entitlement,4,18460,,survey-likert,4,106091,0.0-4.0,65469,group1,interaction,direct,3,Female,24,high,interaction,-1.252574197,direct,5.25,1.850819255,3.6875,1.652287261,4.333333333,1.310080935,4.708333333,1.090741176
38,1,high_entitlement,12,4195,,survey-likert,12,115358,0.0-12.0,88735,group3,interaction,modal,1,Male,63,high,interaction,-3.252574197,modal,5.25,1.850819255,3.6875,1.652287261,4.333333333,1.310080935,4.708333333,1.090741176
39,1,high_entitlement,17,17278,,survey-likert,17,404255,0.0-17.0,15364,group1,interaction,direct,5,Male,26,high,interaction,0.747425803,direct,5.25,1.850819255,3.6875,1.652287261,4.333333333,1.310080935,4.708333333,1.090741176
40,1,high_entitlement,4,1960,,survey-likert,4,33090,0.0-4.0,33044,group2,interaction,indirect,5,Male,22,high,interaction,0.747425803,indirect,5.25,1.850819255,3.6875,1.652287261,4.333333333,1.310080935,4.708333333,1.090741176
41,1,high_entitlement,12,8572,,survey-likert,12,194836,0.0-12.0,5100,group3,interaction,modal,4,Male,45,high,interaction,-0.252574197,modal,5.25,1.850819255,3.6875,1.652287261,4.333333333,1.310080935,4.708333333,1.090741176
42,1,high_entitlement,11,15689,,survey-likert,11,249604,0.0-11.0,53320,group1,interaction,direct,4,Female,33,high,interaction,-0.252574197,direct,5.25,1.850819255,3.6875,1.652287261,4.333333333,1.310080935,4.708333333,1.090741176
43,1,high_entitlement,16,23197,,survey-likert,16,493341,0.0-16.0,74693,group2,interaction,indirect,6,Male,39,high,interaction,1.747425803,indirect,5.25,1.850819255,3.6875,1.652287261,4.333333333,1.310080935,4.708333333,1.090741176
44,1,high_entitlement,17,2412,,survey-likert,17,251737,0.0-17.0,70835,group3,interaction,modal,5,Male,27,high,interaction,0.747425803,modal,5.25,1.850819255,3.6875,1.652287261,4.333333333,1.310080935,4.708333333,1.090741176
45,1,high_entitlement,2,8781,,survey-likert,2,55729,0.0-2.0,15793,group3,interaction,modal,3,Female,37,high,interaction,-1.252574197,modal,5.25,1.850819255,3.6875,1.652287261,4.333333333,1.310080935,4.708333333,1.090741176
46,1,high_entitlement,17,9420,,survey-likert,17,288899,0.0-17.0,92254,group3,interaction,modal,1,Male,54,high,interaction,-3.252574197,modal,5.25,1.850819255,3.6875,1.652287261,4.333333333,1.310080935,4.708333333,1.090741176
47,1,high_entitlement,2,39591,,survey-likert,2,68746,0.0-2.0,41322,group2,interaction,indirect,6,Male,30,high,interaction,1.747425803,indirect,5.25,1.850819255,3.6875,1.652287261,4.333333333,1.310080935,4.708333333,1.090741176
48,1,high_entitlement,13,33501,,survey-likert,13,534409,0.0-13.0,2654,group3,interaction,modal,4,Male,27,high,interaction,-0.252574197,modal,5.25,1.850819255,3.6875,1.652287261,4.333333333,1.310080935,4.708333333,1.090741176
49,1,high_entitlement,8,5134,,survey-likert,8,79382,0.0-8.0,77794,group3,interaction,modal,3,Female,42,high,interaction,-1.252574197,modal,5.25,1.850819255,3.6875,1.652287261,4.333333333,1.310080935,4.708333333,1.090741176
50,1,high_entitlement,7,11742,,survey-likert,7,99095,0.0-7.0,61656,group1,interaction,direct,1,Male,27,high,interaction,-3.252574197,direct,5.25,1.850819255,3.6875,1.652287261,4.333333333,1.310080935,4.708333333,1.090741176
51,1,high_entitlement,17,21161,,survey-likert,17,387819,0.0-17.0,53072,group2,interaction,indirect,3,Male,26,high,interaction,-1.252574197,indirect,5.25,1.850819255,3.6875,1.652287261,4.333333333,1.310080935,4.708333333,1.090741176
52,1,high_entitlement,7,918,,survey-likert,7,2699785,0.0-7.0,70111,group4,interaction,wonder,4,Female,21,high,interaction,-0.252574197,embedded modal,5.25,1.850819255,3.6875,1.652287261,4.333333333,1.310080935,4.708333333,1.090741176
53,1,high_entitlement,2,17509,,survey-likert,2,71931,0.0-2.0,47769,group2,interaction,indirect,4,Female,41,high,interaction,-0.252574197,indirect,5.25,1.850819255,3.6875,1.652287261,4.333333333,1.310080935,4.708333333,1.090741176
54,1,high_entitlement,7,9130,,survey-likert,7,71729,0.0-7.0,15587,group4,interaction,wonder,5,Male,30,high,interaction,0.747425803,embedded modal,5.25,1.850819255,3.6875,1.652287261,4.333333333,1.310080935,4.708333333,1.090741176
55,1,high_entitlement,10,5398,,survey-likert,10,95959,0.0-10.0,58581,group2,interaction,indirect,6,Female,27,high,interaction,1.747425803,indirect,5.25,1.850819255,3.6875,1.652287261,4.333333333,1.310080935,4.708333333,1.090741176
56,1,high_entitlement,11,7442,,survey-likert,11,108018,0.0-11.0,54349,group4,interaction,wonder,6,Female,27,high,interaction,1.747425803,embedded modal,5.25,1.850819255,3.6875,1.652287261,4.333333333,1.310080935,4.708333333,1.090741176
57,1,high_entitlement,6,3238,,survey-likert,6,91382,0.0-6.0,9614,group4,interaction,wonder,0,Male,26,high,interaction,-4.252574197,embedded modal,5.25,1.850819255,3.6875,1.652287261,4.333333333,1.310080935,4.708333333,1.090741176
58,1,high_entitlement,9,7267,,survey-likert,9,85250,0.0-9.0,75477,group1,interaction,direct,3,Male,25,high,interaction,-1.252574197,direct,5.25,1.850819255,3.6875,1.652287261,4.333333333,1.310080935,4.708333333,1.090741176
59,1,high_entitlement,8,11798,,survey-likert,8,111223,0.0-8.0,71909,group4,interaction,wonder,5,Male,23,high,interaction,0.747425803,embedded modal,5.25,1.850819255,3.6875,1.652287261,4.333333333,1.310080935,4.708333333,1.090741176
60,1,high_entitlement,5,1953,,survey-likert,5,27337,0.0-5.0,98850,group1,interaction,direct,2,Male,33,high,interaction,-2.252574197,direct,5.25,1.850819255,3.6875,1.652287261,4.333333333,1.310080935,4.708333333,1.090741176
61,1,high_entitlement,6,15266,,survey-likert,6,507910,0.0-6.0,46377,group3,interaction,modal,6,Female,49,high,interaction,1.747425803,modal,5.25,1.850819255,3.6875,1.652287261,4.333333333,1.310080935,4.708333333,1.090741176
62,1,high_entitlement,14,13567,,survey-likert,14,399736,0.0-14.0,92792,group3,interaction,modal,6,Male,30,high,interaction,1.747425803,modal,5.25,1.850819255,3.6875,1.652287261,4.333333333,1.310080935,4.708333333,1.090741176
63,1,high_entitlement,3,16142,,survey-likert,3,57471,0.0-3.0,51964,group3,interaction,modal,1,Female,36,high,interaction,-3.252574197,modal,5.25,1.850819255,3.6875,1.652287261,4.333333333,1.310080935,4.708333333,1.090741176
64,1,high_entitlement,2,15683,,survey-likert,2,31098,0.0-2.0,3430,group2,interaction,indirect,6,Female,23,high,interaction,1.747425803,indirect,5.25,1.850819255,3.6875,1.652287261,4.333333333,1.310080935,4.708333333,1.090741176
65,1,high_entitlement,4,15068,,survey-likert,4,72655,0.0-4.0,25948,group3,interaction,modal,4,Male,41,high,interaction,-0.252574197,modal,5.25,1.850819255,3.6875,1.652287261,4.333333333,1.310080935,4.708333333,1.090741176
66,1,high_entitlement,10,12416,,survey-likert,10,151396,0.0-10.0,79926,group4,interaction,wonder,5,Male,NA,high,interaction,0.747425803,embedded modal,5.25,1.850819255,3.6875,1.652287261,4.333333333,1.310080935,4.708333333,1.090741176
67,1,high_entitlement,4,9329,,survey-likert,4,288226,0.0-4.0,70202,group2,interaction,indirect,5,Male,23,high,interaction,0.747425803,indirect,5.25,1.850819255,3.6875,1.652287261,4.333333333,1.310080935,4.708333333,1.090741176
68,1,high_entitlement,14,19588,,survey-likert,14,202441,0.0-14.0,21733,group4,interaction,wonder,6,Male,24,high,interaction,1.747425803,embedded modal,5.25,1.850819255,3.6875,1.652287261,4.333333333,1.310080935,4.708333333,1.090741176
69,1,high_entitlement,9,16634,,survey-likert,9,125578,0.0-9.0,92110,group3,interaction,modal,6,Female,39,high,interaction,1.747425803,modal,5.25,1.850819255,3.6875,1.652287261,4.333333333,1.310080935,4.708333333,1.090741176
70,1,high_entitlement,11,15675,,survey-likert,11,180856,0.0-11.0,58588,group2,interaction,indirect,4,Male,30,high,interaction,-0.252574197,indirect,5.25,1.850819255,3.6875,1.652287261,4.333333333,1.310080935,4.708333333,1.090741176
71,1,high_entitlement,2,6000,,survey-likert,2,20117,0.0-2.0,64705,group2,interaction,indirect,5,Male,36,high,interaction,0.747425803,indirect,5.25,1.850819255,3.6875,1.652287261,4.333333333,1.310080935,4.708333333,1.090741176
72,1,high_entitlement,8,15426,,survey-likert,8,187591,0.0-8.0,38200,group1,interaction,direct,6,Male,27,high,interaction,1.747425803,direct,5.25,1.850819255,3.6875,1.652287261,4.333333333,1.310080935,4.708333333,1.090741176
73,1,high_entitlement,17,6892,,survey-likert,17,192066,0.0-17.0,11221,group1,interaction,direct,0,Male,20,high,interaction,-4.252574197,direct,5.25,1.850819255,3.6875,1.652287261,4.333333333,1.310080935,4.708333333,1.090741176
74,1,high_entitlement,15,8525,,survey-likert,15,163349,0.0-15.0,77109,group4,interaction,wonder,5,Female,39,high,interaction,0.747425803,embedded modal,5.25,1.850819255,3.6875,1.652287261,4.333333333,1.310080935,4.708333333,1.090741176
75,1,high_entitlement,7,3610,,survey-likert,7,133462,0.0-7.0,72005,group2,interaction,indirect,6,Male,24,high,interaction,1.747425803,indirect,5.25,1.850819255,3.6875,1.652287261,4.333333333,1.310080935,4.708333333,1.090741176
76,1,high_entitlement,10,5196,,survey-likert,10,116281,0.0-10.0,84163,group1,interaction,direct,0,Female,26,high,interaction,-4.252574197,direct,5.25,1.850819255,3.6875,1.652287261,4.333333333,1.310080935,4.708333333,1.090741176
77,1,high_entitlement,14,3781,,survey-likert,14,148137,0.0-14.0,95722,group4,interaction,wonder,6,Male,40,high,interaction,1.747425803,embedded modal,5.25,1.850819255,3.6875,1.652287261,4.333333333,1.310080935,4.708333333,1.090741176
78,1,high_entitlement,18,3403,,survey-likert,18,83844,0.0-18.0,46503,group3,interaction,modal,4,Male,31,high,interaction,-0.252574197,modal,5.25,1.850819255,3.6875,1.652287261,4.333333333,1.310080935,4.708333333,1.090741176
79,1,high_entitlement,3,18071,,survey-likert,3,82495,0.0-3.0,44059,group4,interaction,wonder,6,Female,32,high,interaction,1.747425803,embedded modal,5.25,1.850819255,3.6875,1.652287261,4.333333333,1.310080935,4.708333333,1.090741176
80,1,high_entitlement,12,187060,,survey-likert,12,546589,0.0-12.0,62400,group4,interaction,wonder,2,Male,24,high,interaction,-2.252574197,embedded modal,5.25,1.850819255,3.6875,1.652287261,4.333333333,1.310080935,4.708333333,1.090741176
81,1,high_entitlement,7,18979,,survey-likert,7,126834,0.0-7.0,57291,group4,interaction,wonder,4,Male,23,high,interaction,-0.252574197,embedded modal,5.25,1.850819255,3.6875,1.652287261,4.333333333,1.310080935,4.708333333,1.090741176
82,1,high_entitlement,15,6474,,survey-likert,15,96816,0.0-15.0,81953,group4,interaction,wonder,5,Female,42,high,interaction,0.747425803,embedded modal,5.25,1.850819255,3.6875,1.652287261,4.333333333,1.310080935,4.708333333,1.090741176
83,1,high_entitlement,6,12852,,survey-likert,6,98556,0.0-6.0,22339,group4,interaction,wonder,5,Male,45,high,interaction,0.747425803,embedded modal,5.25,1.850819255,3.6875,1.652287261,4.333333333,1.310080935,4.708333333,1.090741176
84,1,high_entitlement,12,10744,,survey-likert,12,144590,0.0-12.0,17737,group1,interaction,direct,0,Female,56,high,interaction,-4.252574197,direct,5.25,1.850819255,3.6875,1.652287261,4.333333333,1.310080935,4.708333333,1.090741176
85,1,high_entitlement,9,12410,,survey-likert,9,95895,0.0-9.0,28767,group1,interaction,direct,4,Male,29,high,interaction,-0.252574197,direct,5.25,1.850819255,3.6875,1.652287261,4.333333333,1.310080935,4.708333333,1.090741176
86,1,high_entitlement,4,11000,,survey-likert,4,53976,0.0-4.0,54578,group2,interaction,indirect,2,Female,34,high,interaction,-2.252574197,indirect,5.25,1.850819255,3.6875,1.652287261,4.333333333,1.310080935,4.708333333,1.090741176
87,1,high_entitlement,11,5897,,survey-likert,11,93586,0.0-11.0,86984,group2,interaction,indirect,2,Male,22,high,interaction,-2.252574197,indirect,5.25,1.850819255,3.6875,1.652287261,4.333333333,1.310080935,4.708333333,1.090741176
88,1,high_entitlement,14,28698,,survey-likert,14,248590,0.0-14.0,61076,group4,interaction,wonder,6,Female,33,high,interaction,1.747425803,embedded modal,5.25,1.850819255,3.6875,1.652287261,4.333333333,1.310080935,4.708333333,1.090741176
89,1,high_entitlement,4,9173,,survey-likert,4,45261,0.0-4.0,13081,group4,interaction,wonder,6,Female,36,high,interaction,1.747425803,embedded modal,5.25,1.850819255,3.6875,1.652287261,4.333333333,1.310080935,4.708333333,1.090741176
90,1,high_entitlement,18,13043,,survey-likert,18,276650,0.0-18.0,16019,group4,interaction,wonder,6,Female,34,high,interaction,1.747425803,embedded modal,5.25,1.850819255,3.6875,1.652287261,4.333333333,1.310080935,4.708333333,1.090741176
91,1,high_entitlement,8,8975,,survey-likert,8,110606,0.0-8.0,20708,group1,interaction,direct,1,Female,27,high,interaction,-3.252574197,direct,5.25,1.850819255,3.6875,1.652287261,4.333333333,1.310080935,4.708333333,1.090741176
92,1,high_entitlement,18,4020,,survey-likert,18,283773,0.0-18.0,16115,group2,interaction,indirect,4,Male,34,high,interaction,-0.252574197,indirect,5.25,1.850819255,3.6875,1.652287261,4.333333333,1.310080935,4.708333333,1.090741176
93,1,high_entitlement,3,42064,,survey-likert,3,102787,0.0-3.0,16731,group3,interaction,modal,5,Male,26,high,interaction,0.747425803,modal,5.25,1.850819255,3.6875,1.652287261,4.333333333,1.310080935,4.708333333,1.090741176
94,1,high_entitlement,7,31310,,survey-likert,7,199382,0.0-7.0,66747,group1,interaction,direct,5,Male,23,high,interaction,0.747425803,direct,5.25,1.850819255,3.6875,1.652287261,4.333333333,1.310080935,4.708333333,1.090741176
95,1,high_entitlement,10,12680,,survey-likert,10,203724,0.0-10.0,83017,group1,interaction,direct,2,Male,43,high,interaction,-2.252574197,direct,5.25,1.850819255,3.6875,1.652287261,4.333333333,1.310080935,4.708333333,1.090741176
96,1,high_entitlement,16,6231,,survey-likert,16,184849,0.0-16.0,49017,group4,interaction,wonder,5,Male,35,high,interaction,0.747425803,embedded modal,5.25,1.850819255,3.6875,1.652287261,4.333333333,1.310080935,4.708333333,1.090741176
97,1,high_entitlement,16,21606,,survey-likert,16,318422,0.0-16.0,86454,group1,interaction,direct,5,Male,62,high,interaction,0.747425803,direct,5.25,1.850819255,3.6875,1.652287261,4.333333333,1.310080935,4.708333333,1.090741176
98,1,high_entitlement,7,18387,,survey-likert,7,156356,0.0-7.0,84774,group2,interaction,indirect,3,Male,51,high,interaction,-1.252574197,indirect,5.25,1.850819255,3.6875,1.652287261,4.333333333,1.310080935,4.708333333,1.090741176
99,1,high_entitlement,6,1273,,survey-likert,6,27419,0.0-6.0,27495,group2,interaction,indirect,4,Male,22,high,interaction,-0.252574197,indirect,5.25,1.850819255,3.6875,1.652287261,4.333333333,1.310080935,4.708333333,1.090741176
100,1,high_entitlement,17,8385,,survey-likert,17,149993,0.0-17.0,42259,group3,interaction,modal,4,Male,30,high,interaction,-0.252574197,modal,5.25,1.850819255,3.6875,1.652287261,4.333333333,1.310080935,4.708333333,1.090741176
101,1,high_entitlement,19,13180,,survey-likert,19,248088,0.0-19.0,18718,group2,interaction,indirect,5,Male,39,high,interaction,0.747425803,indirect,5.25,1.850819255,3.6875,1.652287261,4.333333333,1.310080935,4.708333333,1.090741176
102,1,high_entitlement,14,16629,,survey-likert,14,741251,0.0-14.0,67297,group3,interaction,modal,5,Male,32,high,interaction,0.747425803,modal,5.25,1.850819255,3.6875,1.652287261,4.333333333,1.310080935,4.708333333,1.090741176
103,1,high_entitlement,7,3685,,survey-likert,7,103362,0.0-7.0,84778,group3,interaction,modal,4,Female,28,high,interaction,-0.252574197,modal,5.25,1.850819255,3.6875,1.652287261,4.333333333,1.310080935,4.708333333,1.090741176
104,1,low_entitlement,16,31326,,survey-likert,16,359428,0.0-16.0,66747,group1,interaction,direct,4,Male,23,low,interaction,-0.252574197,direct,4.038461538,1.781842387,5.288461538,1.257706261,5.019230769,1.244444669,4.769230769,1.24641265
105,1,low_entitlement,7,13620,,survey-likert,7,297002,0.0-7.0,65042,group2,interaction,indirect,3,Male,31,low,interaction,-1.252574197,indirect,4.038461538,1.781842387,5.288461538,1.257706261,5.019230769,1.244444669,4.769230769,1.24641265
106,1,low_entitlement,12,8353,,survey-likert,12,393048,0.0-12.0,50739,group4,interaction,wonder,5,Female,38,low,interaction,0.747425803,embedded modal,4.038461538,1.781842387,5.288461538,1.257706261,5.019230769,1.244444669,4.769230769,1.24641265
107,1,low_entitlement,13,4606,,survey-likert,13,107184,0.0-13.0,77794,group3,interaction,modal,3,Female,42,low,interaction,-1.252574197,modal,4.038461538,1.781842387,5.288461538,1.257706261,5.019230769,1.244444669,4.769230769,1.24641265
108,1,low_entitlement,9,19100,,survey-likert,9,388927,0.0-9.0,70202,group2,interaction,indirect,4,Male,23,low,interaction,-0.252574197,indirect,4.038461538,1.781842387,5.288461538,1.257706261,5.019230769,1.244444669,4.769230769,1.24641265
109,1,low_entitlement,19,5697,,survey-likert,19,190937,0.0-19.0,20708,group1,interaction,direct,0,Female,27,low,interaction,-4.252574197,direct,4.038461538,1.781842387,5.288461538,1.257706261,5.019230769,1.244444669,4.769230769,1.24641265
110,1,low_entitlement,3,14604,,survey-likert,3,78578,0.0-3.0,73278,group4,interaction,wonder,6,Female,59,low,interaction,1.747425803,embedded modal,4.038461538,1.781842387,5.288461538,1.257706261,5.019230769,1.244444669,4.769230769,1.24641265
111,1,low_entitlement,7,5432,,survey-likert,7,106503,0.0-7.0,21733,group4,interaction,wonder,6,Male,24,low,interaction,1.747425803,embedded modal,4.038461538,1.781842387,5.288461538,1.257706261,5.019230769,1.244444669,4.769230769,1.24641265
112,1,low_entitlement,8,21775,,survey-likert,8,146003,0.0-8.0,87176,group1,interaction,direct,6,Male,31,low,interaction,1.747425803,direct,4.038461538,1.781842387,5.288461538,1.257706261,5.019230769,1.244444669,4.769230769,1.24641265
113,1,low_entitlement,17,9383,,survey-likert,17,210767,0.0-17.0,71909,group4,interaction,wonder,5,Male,23,low,interaction,0.747425803,embedded modal,4.038461538,1.781842387,5.288461538,1.257706261,5.019230769,1.244444669,4.769230769,1.24641265
114,1,low_entitlement,11,6898,,survey-likert,11,486345,0.0-11.0,28898,group1,interaction,direct,0,Female,60,low,interaction,-4.252574197,direct,4.038461538,1.781842387,5.288461538,1.257706261,5.019230769,1.244444669,4.769230769,1.24641265
115,1,low_entitlement,17,3532,,survey-likert,17,223606,0.0-17.0,45552,group2,interaction,indirect,0,Male,24,low,interaction,-4.252574197,indirect,4.038461538,1.781842387,5.288461538,1.257706261,5.019230769,1.244444669,4.769230769,1.24641265
116,1,low_entitlement,16,19400,,survey-likert,16,301477,0.0-16.0,68260,group1,interaction,direct,1,Female,37,low,interaction,-3.252574197,direct,4.038461538,1.781842387,5.288461538,1.257706261,5.019230769,1.244444669,4.769230769,1.24641265
117,1,low_entitlement,7,3959,,survey-likert,7,81390,0.0-7.0,88735,group3,interaction,modal,1,Male,63,low,interaction,-3.252574197,modal,4.038461538,1.781842387,5.288461538,1.257706261,5.019230769,1.244444669,4.769230769,1.24641265
118,1,low_entitlement,7,14041,,survey-likert,7,115126,0.0-7.0,79926,group4,interaction,wonder,5,Male,NA,low,interaction,0.747425803,embedded modal,4.038461538,1.781842387,5.288461538,1.257706261,5.019230769,1.244444669,4.769230769,1.24641265
119,1,low_entitlement,16,64307,,survey-likert,16,407330,0.0-16.0,87309,group1,interaction,direct,0,Male,50,low,interaction,-4.252574197,direct,4.038461538,1.781842387,5.288461538,1.257706261,5.019230769,1.244444669,4.769230769,1.24641265
120,1,low_entitlement,7,6770,,survey-likert,7,79526,0.0-7.0,5100,group3,interaction,modal,3,Male,45,low,interaction,-1.252574197,modal,4.038461538,1.781842387,5.288461538,1.257706261,5.019230769,1.244444669,4.769230769,1.24641265
121,1,low_entitlement,13,17389,,survey-likert,13,213538,0.0-13.0,57291,group4,interaction,wonder,3,Male,23,low,interaction,-1.252574197,embedded modal,4.038461538,1.781842387,5.288461538,1.257706261,5.019230769,1.244444669,4.769230769,1.24641265
122,1,low_entitlement,4,7458,,survey-likert,4,69979,0.0-4.0,83017,group1,interaction,direct,1,Male,43,low,interaction,-3.252574197,direct,4.038461538,1.781842387,5.288461538,1.257706261,5.019230769,1.244444669,4.769230769,1.24641265
123,1,low_entitlement,19,6894,,survey-likert,19,218653,0.0-19.0,65469,group1,interaction,direct,1,Female,24,low,interaction,-3.252574197,direct,4.038461538,1.781842387,5.288461538,1.257706261,5.019230769,1.244444669,4.769230769,1.24641265
124,1,low_entitlement,10,13738,,survey-likert,10,249200,0.0-10.0,67329,group3,interaction,modal,4,Female,28,low,interaction,-0.252574197,modal,4.038461538,1.781842387,5.288461538,1.257706261,5.019230769,1.244444669,4.769230769,1.24641265
125,1,low_entitlement,3,2180,,survey-likert,3,21207,0.0-3.0,98850,group1,interaction,direct,3,Male,33,low,interaction,-1.252574197,direct,4.038461538,1.781842387,5.288461538,1.257706261,5.019230769,1.244444669,4.769230769,1.24641265
126,1,low_entitlement,8,29651,,survey-likert,8,178104,0.0-8.0,92254,group3,interaction,modal,1,Male,54,low,interaction,-3.252574197,modal,4.038461538,1.781842387,5.288461538,1.257706261,5.019230769,1.244444669,4.769230769,1.24641265
127,1,low_entitlement,4,14672,,survey-likert,4,49193,0.0-4.0,45596,group2,interaction,indirect,1,Male,34,low,interaction,-3.252574197,indirect,4.038461538,1.781842387,5.288461538,1.257706261,5.019230769,1.244444669,4.769230769,1.24641265
128,1,low_entitlement,8,12119,,survey-likert,8,97947,0.0-8.0,19384,group2,interaction,indirect,3,Male,33,low,interaction,-1.252574197,indirect,4.038461538,1.781842387,5.288461538,1.257706261,5.019230769,1.244444669,4.769230769,1.24641265
129,1,low_entitlement,19,4759,,survey-likert,19,628088,0.0-19.0,2654,group3,interaction,modal,5,Male,27,low,interaction,0.747425803,modal,4.038461538,1.781842387,5.288461538,1.257706261,5.019230769,1.244444669,4.769230769,1.24641265
130,1,low_entitlement,11,4275,,survey-likert,11,103893,0.0-11.0,55429,group4,interaction,wonder,6,Female,23,low,interaction,1.747425803,embedded modal,4.038461538,1.781842387,5.288461538,1.257706261,5.019230769,1.244444669,4.769230769,1.24641265
131,1,low_entitlement,14,8203,,survey-likert,14,136391,0.0-14.0,13081,group4,interaction,wonder,6,Female,36,low,interaction,1.747425803,embedded modal,4.038461538,1.781842387,5.288461538,1.257706261,5.019230769,1.244444669,4.769230769,1.24641265
132,1,low_entitlement,6,41597,,survey-likert,6,178475,0.0-6.0,53072,group2,interaction,indirect,5,Male,26,low,interaction,0.747425803,indirect,4.038461538,1.781842387,5.288461538,1.257706261,5.019230769,1.244444669,4.769230769,1.24641265
133,1,low_entitlement,11,4615,,survey-likert,11,195621,0.0-11.0,16731,group3,interaction,modal,4,Male,26,low,interaction,-0.252574197,modal,4.038461538,1.781842387,5.288461538,1.257706261,5.019230769,1.244444669,4.769230769,1.24641265
134,1,low_entitlement,6,9366,,survey-likert,6,80167,0.0-6.0,96726,group2,interaction,indirect,4,Female,24,low,interaction,-0.252574197,indirect,4.038461538,1.781842387,5.288461538,1.257706261,5.019230769,1.244444669,4.769230769,1.24641265
135,1,low_entitlement,2,37260,,survey-likert,2,70339,0.0-2.0,63264,group3,interaction,modal,3,Female,28,low,interaction,-1.252574197,modal,4.038461538,1.781842387,5.288461538,1.257706261,5.019230769,1.244444669,4.769230769,1.24641265
136,1,low_entitlement,7,17000,,survey-likert,7,209590,0.0-7.0,45082,group3,interaction,modal,4,Female,51,low,interaction,-0.252574197,modal,4.038461538,1.781842387,5.288461538,1.257706261,5.019230769,1.244444669,4.769230769,1.24641265
137,1,low_entitlement,11,13705,,survey-likert,11,110669,0.0-11.0,58581,group2,interaction,indirect,4,Female,27,low,interaction,-0.252574197,indirect,4.038461538,1.781842387,5.288461538,1.257706261,5.019230769,1.244444669,4.769230769,1.24641265
138,1,low_entitlement,15,3170,,survey-likert,15,90288,0.0-15.0,98554,group1,interaction,direct,3,Male,36,low,interaction,-1.252574197,direct,4.038461538,1.781842387,5.288461538,1.257706261,5.019230769,1.244444669,4.769230769,1.24641265
139,1,low_entitlement,6,6703,,survey-likert,6,96579,0.0-6.0,23900,group2,interaction,indirect,2,Male,27,low,interaction,-2.252574197,indirect,4.038461538,1.781842387,5.288461538,1.257706261,5.019230769,1.244444669,4.769230769,1.24641265
140,1,low_entitlement,15,4989,,survey-likert,15,103789,0.0-15.0,1536,group2,interaction,indirect,4,Male,34,low,interaction,-0.252574197,indirect,4.038461538,1.781842387,5.288461538,1.257706261,5.019230769,1.244444669,4.769230769,1.24641265
141,1,low_entitlement,11,12615,,survey-likert,11,352888,0.0-11.0,92792,group3,interaction,modal,6,Male,30,low,interaction,1.747425803,modal,4.038461538,1.781842387,5.288461538,1.257706261,5.019230769,1.244444669,4.769230769,1.24641265
142,1,low_entitlement,11,10588,,survey-likert,11,193459,0.0-11.0,16019,group4,interaction,wonder,6,Female,34,low,interaction,1.747425803,embedded modal,4.038461538,1.781842387,5.288461538,1.257706261,5.019230769,1.244444669,4.769230769,1.24641265
143,1,low_entitlement,10,9774,,survey-likert,10,134519,0.0-10.0,65327,group2,interaction,indirect,4,Female,47,low,interaction,-0.252574197,indirect,4.038461538,1.781842387,5.288461538,1.257706261,5.019230769,1.244444669,4.769230769,1.24641265
144,1,low_entitlement,5,14931,,survey-likert,5,76976,0.0-5.0,61656,group1,interaction,direct,2,Male,27,low,interaction,-2.252574197,direct,4.038461538,1.781842387,5.288461538,1.257706261,5.019230769,1.244444669,4.769230769,1.24641265
145,1,low_entitlement,13,9293,,survey-likert,13,260860,0.0-13.0,29579,group1,interaction,direct,6,Male,28,low,interaction,1.747425803,direct,4.038461538,1.781842387,5.288461538,1.257706261,5.019230769,1.244444669,4.769230769,1.24641265
146,1,low_entitlement,5,14898,,survey-likert,5,108494,0.0-5.0,74284,group4,interaction,wonder,5,Male,55,low,interaction,0.747425803,embedded modal,4.038461538,1.781842387,5.288461538,1.257706261,5.019230769,1.244444669,4.769230769,1.24641265
147,1,low_entitlement,14,6605,,survey-likert,14,170641,0.0-14.0,3430,group2,interaction,indirect,4,Female,23,low,interaction,-0.252574197,indirect,4.038461538,1.781842387,5.288461538,1.257706261,5.019230769,1.244444669,4.769230769,1.24641265
148,1,low_entitlement,10,9083,,survey-likert,10,158758,0.0-10.0,25948,group3,interaction,modal,4,Male,41,low,interaction,-0.252574197,modal,4.038461538,1.781842387,5.288461538,1.257706261,5.019230769,1.244444669,4.769230769,1.24641265
149,1,low_entitlement,5,29123,,survey-likert,5,94062,0.0-5.0,97825,group4,interaction,wonder,5,Male,30,low,interaction,0.747425803,embedded modal,4.038461538,1.781842387,5.288461538,1.257706261,5.019230769,1.244444669,4.769230769,1.24641265
150,1,low_entitlement,15,7429,,survey-likert,15,177617,0.0-15.0,49017,group4,interaction,wonder,5,Male,35,low,interaction,0.747425803,embedded modal,4.038461538,1.781842387,5.288461538,1.257706261,5.019230769,1.244444669,4.769230769,1.24641265
151,1,low_entitlement,14,8051,,survey-likert,14,173409,0.0-14.0,92110,group3,interaction,modal,2,Female,39,low,interaction,-2.252574197,modal,4.038461538,1.781842387,5.288461538,1.257706261,5.019230769,1.244444669,4.769230769,1.24641265
152,1,low_entitlement,14,4019,,survey-likert,14,74211,0.0-14.0,64705,group2,interaction,indirect,4,Male,36,low,interaction,-0.252574197,indirect,4.038461538,1.781842387,5.288461538,1.257706261,5.019230769,1.244444669,4.769230769,1.24641265
153,1,low_entitlement,8,6768,,survey-likert,8,91610,0.0-8.0,77109,group4,interaction,wonder,4,Female,39,low,interaction,-0.252574197,embedded modal,4.038461538,1.781842387,5.288461538,1.257706261,5.019230769,1.244444669,4.769230769,1.24641265
154,1,low_entitlement,9,1666,,survey-likert,9,300699,0.0-9.0,83487,group3,interaction,modal,4,Female,28,low,interaction,-0.252574197,modal,4.038461538,1.781842387,5.288461538,1.257706261,5.019230769,1.244444669,4.769230769,1.24641265
155,1,low_entitlement,3,71917,,survey-likert,3,142673,0.0-3.0,24477,group3,interaction,modal,4,Male,55,low,interaction,-0.252574197,modal,4.038461538,1.781842387,5.288461538,1.257706261,5.019230769,1.244444669,4.769230769,1.24641265
156,1,low_entitlement,19,4210,,survey-likert,19,196007,0.0-19.0,72005,group2,interaction,indirect,6,Male,24,low,interaction,1.747425803,indirect,4.038461538,1.781842387,5.288461538,1.257706261,5.019230769,1.244444669,4.769230769,1.24641265
157,1,low_entitlement,10,26724,,survey-likert,10,163395,0.0-10.0,51964,group3,interaction,modal,5,Female,36,low,interaction,0.747425803,modal,4.038461538,1.781842387,5.288461538,1.257706261,5.019230769,1.244444669,4.769230769,1.24641265
158,1,low_entitlement,6,11988,,survey-likert,6,119590,0.0-6.0,16115,group2,interaction,indirect,3,Male,34,low,interaction,-1.252574197,indirect,4.038461538,1.781842387,5.288461538,1.257706261,5.019230769,1.244444669,4.769230769,1.24641265
159,1,low_entitlement,14,28640,,survey-likert,14,359445,0.0-14.0,15364,group1,interaction,direct,1,Male,26,low,interaction,-3.252574197,direct,4.038461538,1.781842387,5.288461538,1.257706261,5.019230769,1.244444669,4.769230769,1.24641265
160,1,low_entitlement,4,21999,,survey-likert,4,256901,0.0-4.0,62400,group4,interaction,wonder,5,Male,24,low,interaction,0.747425803,embedded modal,4.038461538,1.781842387,5.288461538,1.257706261,5.019230769,1.244444669,4.769230769,1.24641265
161,1,low_entitlement,11,2778,,survey-likert,11,75049,0.0-11.0,81953,group4,interaction,wonder,4,Female,42,low,interaction,-0.252574197,embedded modal,4.038461538,1.781842387,5.288461538,1.257706261,5.019230769,1.244444669,4.769230769,1.24641265
162,1,low_entitlement,12,33284,,survey-likert,12,392414,0.0-12.0,74693,group2,interaction,indirect,2,Male,39,low,interaction,-2.252574197,indirect,4.038461538,1.781842387,5.288461538,1.257706261,5.019230769,1.244444669,4.769230769,1.24641265
163,1,low_entitlement,18,4152,,survey-likert,18,309948,0.0-18.0,53320,group1,interaction,direct,4,Female,33,low,interaction,-0.252574197,direct,4.038461538,1.781842387,5.288461538,1.257706261,5.019230769,1.244444669,4.769230769,1.24641265
164,1,low_entitlement,14,1671,,survey-likert,14,59571,0.0-14.0,1147,group2,interaction,indirect,4,Male,20,low,interaction,-0.252574197,indirect,4.038461538,1.781842387,5.288461538,1.257706261,5.019230769,1.244444669,4.769230769,1.24641265
165,1,low_entitlement,10,18748,,survey-likert,10,202218,0.0-10.0,70835,group3,interaction,modal,5,Male,27,low,interaction,0.747425803,modal,4.038461538,1.781842387,5.288461538,1.257706261,5.019230769,1.244444669,4.769230769,1.24641265
166,1,low_entitlement,12,14620,,survey-likert,12,160739,0.0-12.0,22339,group4,interaction,wonder,5,Male,45,low,interaction,0.747425803,embedded modal,4.038461538,1.781842387,5.288461538,1.257706261,5.019230769,1.244444669,4.769230769,1.24641265
167,1,low_entitlement,5,10276,,survey-likert,5,86017,0.0-5.0,15793,group3,interaction,modal,5,Female,37,low,interaction,0.747425803,modal,4.038461538,1.781842387,5.288461538,1.257706261,5.019230769,1.244444669,4.769230769,1.24641265
168,1,low_entitlement,3,8460,,survey-likert,3,47652,0.0-3.0,61076,group4,interaction,wonder,6,Female,33,low,interaction,1.747425803,embedded modal,4.038461538,1.781842387,5.288461538,1.257706261,5.019230769,1.244444669,4.769230769,1.24641265
169,1,low_entitlement,10,13967,,survey-likert,10,265079,0.0-10.0,29160,group2,interaction,indirect,4,Male,32,low,interaction,-0.252574197,indirect,4.038461538,1.781842387,5.288461538,1.257706261,5.019230769,1.244444669,4.769230769,1.24641265
170,1,low_entitlement,11,25177,,survey-likert,11,142459,0.0-11.0,84163,group1,interaction,direct,0,Female,26,low,interaction,-4.252574197,direct,4.038461538,1.781842387,5.288461538,1.257706261,5.019230769,1.244444669,4.769230769,1.24641265
171,1,low_entitlement,14,24341,,survey-likert,14,697624,0.0-14.0,25173,group1,interaction,direct,5,Male,32,low,interaction,0.747425803,direct,4.038461538,1.781842387,5.288461538,1.257706261,5.019230769,1.244444669,4.769230769,1.24641265
172,1,low_entitlement,5,31405,,survey-likert,5,114041,0.0-5.0,84774,group2,interaction,indirect,2,Male,51,low,interaction,-2.252574197,indirect,4.038461538,1.781842387,5.288461538,1.257706261,5.019230769,1.244444669,4.769230769,1.24641265
173,1,low_entitlement,6,781,,survey-likert,6,2697862,0.0-6.0,70111,group4,interaction,wonder,4,Female,21,low,interaction,-0.252574197,embedded modal,4.038461538,1.781842387,5.288461538,1.257706261,5.019230769,1.244444669,4.769230769,1.24641265
174,1,low_entitlement,19,6877,,survey-likert,19,222884,0.0-19.0,95722,group4,interaction,wonder,6,Male,40,low,interaction,1.747425803,embedded modal,4.038461538,1.781842387,5.288461538,1.257706261,5.019230769,1.244444669,4.769230769,1.24641265
175,1,low_entitlement,16,5879,,survey-likert,16,187762,0.0-16.0,90363,group1,interaction,direct,5,Male,35,low,interaction,0.747425803,direct,4.038461538,1.781842387,5.288461538,1.257706261,5.019230769,1.244444669,4.769230769,1.24641265
176,1,low_entitlement,14,20047,,survey-likert,14,206411,0.0-14.0,53235,group1,interaction,direct,6,Male,29,low,interaction,1.747425803,direct,4.038461538,1.781842387,5.288461538,1.257706261,5.019230769,1.244444669,4.769230769,1.24641265
177,1,low_entitlement,8,18145,,survey-likert,8,90878,0.0-8.0,15587,group4,interaction,wonder,5,Male,30,low,interaction,0.747425803,embedded modal,4.038461538,1.781842387,5.288461538,1.257706261,5.019230769,1.244444669,4.769230769,1.24641265
178,1,low_entitlement,13,11353,,survey-likert,13,163011,0.0-13.0,38125,group4,interaction,wonder,4,Female,33,low,interaction,-0.252574197,embedded modal,4.038461538,1.781842387,5.288461538,1.257706261,5.019230769,1.244444669,4.769230769,1.24641265
179,1,low_entitlement,18,6491,,survey-likert,18,162674,0.0-18.0,28767,group1,interaction,direct,3,Male,29,low,interaction,-1.252574197,direct,4.038461538,1.781842387,5.288461538,1.257706261,5.019230769,1.244444669,4.769230769,1.24641265
180,1,low_entitlement,9,15092,,survey-likert,9,139792,0.0-9.0,18718,group2,interaction,indirect,1,Male,39,low,interaction,-3.252574197,indirect,4.038461538,1.781842387,5.288461538,1.257706261,5.019230769,1.244444669,4.769230769,1.24641265
181,1,low_entitlement,9,10327,,survey-likert,9,114816,0.0-9.0,67486,group1,interaction,direct,3,Male,26,low,interaction,-1.252574197,direct,4.038461538,1.781842387,5.288461538,1.257706261,5.019230769,1.244444669,4.769230769,1.24641265
182,1,low_entitlement,9,10115,,survey-likert,9,115050,0.0-9.0,50886,group2,interaction,indirect,1,Female,44,low,interaction,-3.252574197,indirect,4.038461538,1.781842387,5.288461538,1.257706261,5.019230769,1.244444669,4.769230769,1.24641265
183,1,low_entitlement,13,9127,,survey-likert,13,269076,0.0-13.0,14583,group2,interaction,indirect,6,Male,32,low,interaction,1.747425803,indirect,4.038461538,1.781842387,5.288461538,1.257706261,5.019230769,1.244444669,4.769230769,1.24641265
184,1,low_entitlement,11,16752,,survey-likert,11,563514,0.0-11.0,46377,group3,interaction,modal,6,Female,49,low,interaction,1.747425803,modal,4.038461538,1.781842387,5.288461538,1.257706261,5.019230769,1.244444669,4.769230769,1.24641265
185,1,low_entitlement,3,2759,,survey-likert,3,30127,0.0-3.0,33044,group2,interaction,indirect,4,Male,22,low,interaction,-0.252574197,indirect,4.038461538,1.781842387,5.288461538,1.257706261,5.019230769,1.244444669,4.769230769,1.24641265
186,1,low_entitlement,13,21206,,survey-likert,13,371879,0.0-13.0,55610,group1,interaction,direct,2,Male,70,low,interaction,-2.252574197,direct,4.038461538,1.781842387,5.288461538,1.257706261,5.019230769,1.244444669,4.769230769,1.24641265
187,1,low_entitlement,6,24058,,survey-likert,6,541564,0.0-6.0,67297,group3,interaction,modal,4,Male,32,low,interaction,-0.252574197,modal,4.038461538,1.781842387,5.288461538,1.257706261,5.019230769,1.244444669,4.769230769,1.24641265
188,1,low_entitlement,5,2502,,survey-likert,5,87601,0.0-5.0,84778,group3,interaction,modal,1,Female,28,low,interaction,-3.252574197,modal,4.038461538,1.781842387,5.288461538,1.257706261,5.019230769,1.244444669,4.769230769,1.24641265
189,1,low_entitlement,2,15528,,survey-likert,2,49221,0.0-2.0,2524,group4,interaction,wonder,5,Female,34,low,interaction,0.747425803,embedded modal,4.038461538,1.781842387,5.288461538,1.257706261,5.019230769,1.244444669,4.769230769,1.24641265
190,1,low_entitlement,3,2848,,survey-likert,3,81449,0.0-3.0,17266,group1,interaction,direct,4,Male,26,low,interaction,-0.252574197,direct,4.038461538,1.781842387,5.288461538,1.257706261,5.019230769,1.244444669,4.769230769,1.24641265
191,1,low_entitlement,10,21183,,survey-likert,10,131912,0.0-10.0,11221,group1,interaction,direct,0,Male,20,low,interaction,-4.252574197,direct,4.038461538,1.781842387,5.288461538,1.257706261,5.019230769,1.244444669,4.769230769,1.24641265
192,1,low_entitlement,15,8280,,survey-likert,15,186997,0.0-15.0,15639,group3,interaction,modal,6,Male,25,low,interaction,1.747425803,modal,4.038461538,1.781842387,5.288461538,1.257706261,5.019230769,1.244444669,4.769230769,1.24641265
193,1,low_entitlement,18,23415,,survey-likert,18,356654,0.0-18.0,86454,group1,interaction,direct,3,Male,62,low,interaction,-1.252574197,direct,4.038461538,1.781842387,5.288461538,1.257706261,5.019230769,1.244444669,4.769230769,1.24641265
194,1,low_entitlement,12,14543,,survey-likert,12,196404,0.0-12.0,58588,group2,interaction,indirect,3,Male,30,low,interaction,-1.252574197,indirect,4.038461538,1.781842387,5.288461538,1.257706261,5.019230769,1.244444669,4.769230769,1.24641265
195,1,low_entitlement,2,7331,,survey-likert,2,16744,0.0-2.0,46503,group3,interaction,modal,6,Male,31,low,interaction,1.747425803,modal,4.038461538,1.781842387,5.288461538,1.257706261,5.019230769,1.244444669,4.769230769,1.24641265
196,1,low_entitlement,17,7538,,survey-likert,17,159355,0.0-17.0,54578,group2,interaction,indirect,2,Female,34,low,interaction,-2.252574197,indirect,4.038461538,1.781842387,5.288461538,1.257706261,5.019230769,1.244444669,4.769230769,1.24641265
197,1,low_entitlement,11,74998,,survey-likert,11,339805,0.0-11.0,41322,group2,interaction,indirect,5,Male,30,low,interaction,0.747425803,indirect,4.038461538,1.781842387,5.288461538,1.257706261,5.019230769,1.244444669,4.769230769,1.24641265
198,1,low_entitlement,11,6742,,survey-likert,11,293485,0.0-11.0,47769,group2,interaction,indirect,2,Female,41,low,interaction,-2.252574197,indirect,4.038461538,1.781842387,5.288461538,1.257706261,5.019230769,1.244444669,4.769230769,1.24641265
199,1,low_entitlement,14,12625,,survey-likert,14,139388,0.0-14.0,54349,group4,interaction,wonder,5,Female,27,low,interaction,0.747425803,embedded modal,4.038461538,1.781842387,5.288461538,1.257706261,5.019230769,1.244444669,4.769230769,1.24641265
200,1,low_entitlement,7,729,,survey-likert,7,29157,0.0-7.0,27495,group2,interaction,indirect,6,Male,22,low,interaction,1.747425803,indirect,4.038461538,1.781842387,5.288461538,1.257706261,5.019230769,1.244444669,4.769230769,1.24641265
201,1,low_entitlement,18,7865,,survey-likert,18,184016,0.0-18.0,17737,group1,interaction,direct,3,Female,56,low,interaction,-1.252574197,direct,4.038461538,1.781842387,5.288461538,1.257706261,5.019230769,1.244444669,4.769230769,1.24641265
202,1,low_entitlement,19,9946,,survey-likert,19,247715,0.0-19.0,44059,group4,interaction,wonder,5,Female,32,low,interaction,0.747425803,embedded modal,4.038461538,1.781842387,5.288461538,1.257706261,5.019230769,1.244444669,4.769230769,1.24641265
203,1,low_entitlement,16,1912,,survey-likert,16,123120,0.0-16.0,86984,group2,interaction,indirect,3,Male,22,low,interaction,-1.252574197,indirect,4.038461538,1.781842387,5.288461538,1.257706261,5.019230769,1.244444669,4.769230769,1.24641265
204,1,low_entitlement,2,22696,,survey-likert,2,56704,0.0-2.0,9614,group4,interaction,wonder,0,Male,26,low,interaction,-4.252574197,embedded modal,4.038461538,1.781842387,5.288461538,1.257706261,5.019230769,1.244444669,4.769230769,1.24641265
205,1,low_entitlement,11,5597,,survey-likert,11,111323,0.0-11.0,42259,group3,interaction,modal,5,Male,30,low,interaction,0.747425803,modal,4.038461538,1.781842387,5.288461538,1.257706261,5.019230769,1.244444669,4.769230769,1.24641265
206,1,low_entitlement,16,12821,,survey-likert,16,311999,0.0-16.0,38200,group1,interaction,direct,3,Male,27,low,interaction,-1.252574197,direct,4.038461538,1.781842387,5.288461538,1.257706261,5.019230769,1.244444669,4.769230769,1.24641265
207,2,high_entitlement,18,8751,,survey-likert,18,232188,0.0-18.0,79926,group4,interaction,indirect,2,Male,NA,high,interaction,-2.252574197,indirect,5.622641509,1.913780141,4.830188679,1.553356775,4.79245283,1.633289396,5.20754717,1.245893108
208,2,high_entitlement,19,5191,,survey-likert,19,146309,0.0-19.0,77794,group3,interaction,wonder,5,Female,42,high,interaction,0.747425803,embedded modal,5.622641509,1.913780141,4.830188679,1.553356775,4.79245283,1.633289396,5.20754717,1.245893108
209,2,high_entitlement,3,5175,,survey-likert,3,77373,0.0-3.0,20708,group1,interaction,modal,5,Female,27,high,interaction,0.747425803,modal,5.622641509,1.913780141,4.830188679,1.553356775,4.79245283,1.633289396,5.20754717,1.245893108
210,2,high_entitlement,7,20280,,survey-likert,7,130371,0.0-7.0,73278,group4,interaction,indirect,2,Female,59,high,interaction,-2.252574197,indirect,5.622641509,1.913780141,4.830188679,1.553356775,4.79245283,1.633289396,5.20754717,1.245893108
211,2,high_entitlement,4,4144,,survey-likert,4,81449,0.0-4.0,90363,group1,interaction,modal,6,Male,35,high,interaction,1.747425803,modal,5.622641509,1.913780141,4.830188679,1.553356775,4.79245283,1.633289396,5.20754717,1.245893108
212,2,high_entitlement,5,6358,,survey-likert,5,251747,0.0-5.0,47769,group2,interaction,direct,2,Female,41,high,interaction,-2.252574197,direct,5.622641509,1.913780141,4.830188679,1.553356775,4.79245283,1.633289396,5.20754717,1.245893108
213,2,high_entitlement,8,9270,,survey-likert,8,102569,0.0-8.0,84163,group1,interaction,modal,1,Female,26,high,interaction,-3.252574197,modal,5.622641509,1.913780141,4.830188679,1.553356775,4.79245283,1.633289396,5.20754717,1.245893108
214,2,high_entitlement,10,11566,,survey-likert,10,108569,0.0-10.0,13081,group4,interaction,indirect,5,Female,36,high,interaction,0.747425803,indirect,5.622641509,1.913780141,4.830188679,1.553356775,4.79245283,1.633289396,5.20754717,1.245893108
215,2,high_entitlement,17,50822,,survey-likert,17,346867,0.0-17.0,61076,group4,interaction,indirect,6,Female,33,high,interaction,1.747425803,indirect,5.622641509,1.913780141,4.830188679,1.553356775,4.79245283,1.633289396,5.20754717,1.245893108
216,2,high_entitlement,10,15949,,survey-likert,10,315879,0.0-10.0,55610,group1,interaction,modal,6,Male,70,high,interaction,1.747425803,modal,5.622641509,1.913780141,4.830188679,1.553356775,4.79245283,1.633289396,5.20754717,1.245893108
217,2,high_entitlement,17,14001,,survey-likert,17,343914,0.0-17.0,84774,group2,interaction,direct,1,Male,51,high,interaction,-3.252574197,direct,5.622641509,1.913780141,4.830188679,1.553356775,4.79245283,1.633289396,5.20754717,1.245893108
218,2,high_entitlement,11,5256,,survey-likert,11,152145,0.0-11.0,3430,group2,interaction,direct,6,Female,23,high,interaction,1.747425803,direct,5.622641509,1.913780141,4.830188679,1.553356775,4.79245283,1.633289396,5.20754717,1.245893108
219,2,high_entitlement,17,6378,,survey-likert,17,230711,0.0-17.0,74284,group4,interaction,indirect,3,Male,55,high,interaction,-1.252574197,indirect,5.622641509,1.913780141,4.830188679,1.553356775,4.79245283,1.633289396,5.20754717,1.245893108
220,2,high_entitlement,6,9709,,survey-likert,6,97531,0.0-6.0,51964,group3,interaction,wonder,6,Female,36,high,interaction,1.747425803,embedded modal,5.622641509,1.913780141,4.830188679,1.553356775,4.79245283,1.633289396,5.20754717,1.245893108
221,2,high_entitlement,18,2229,,survey-likert,18,621896,0.0-18.0,2654,group3,interaction,wonder,3,Male,27,high,interaction,-1.252574197,embedded modal,5.622641509,1.913780141,4.830188679,1.553356775,4.79245283,1.633289396,5.20754717,1.245893108
222,2,high_entitlement,6,8866,,survey-likert,6,451320,0.0-6.0,28898,group1,interaction,modal,6,Female,60,high,interaction,1.747425803,modal,5.622641509,1.913780141,4.830188679,1.553356775,4.79245283,1.633289396,5.20754717,1.245893108
223,2,high_entitlement,9,15014,,survey-likert,9,232626,0.0-9.0,87309,group1,interaction,modal,2,Male,50,high,interaction,-2.252574197,modal,5.622641509,1.913780141,4.830188679,1.553356775,4.79245283,1.633289396,5.20754717,1.245893108
224,2,high_entitlement,2,7587,,survey-likert,2,26362,0.0-2.0,33044,group2,interaction,direct,3,Male,22,high,interaction,-1.252574197,direct,5.622641509,1.913780141,4.830188679,1.553356775,4.79245283,1.633289396,5.20754717,1.245893108
225,2,high_entitlement,17,9184,,survey-likert,17,195034,0.0-17.0,49017,group4,interaction,indirect,5,Male,35,high,interaction,0.747425803,indirect,5.622641509,1.913780141,4.830188679,1.553356775,4.79245283,1.633289396,5.20754717,1.245893108
226,2,high_entitlement,11,7671,,survey-likert,11,110153,0.0-11.0,88735,group3,interaction,wonder,2,Male,63,high,interaction,-2.252574197,embedded modal,5.622641509,1.913780141,4.830188679,1.553356775,4.79245283,1.633289396,5.20754717,1.245893108
227,2,high_entitlement,15,11668,,survey-likert,15,372123,0.0-15.0,15364,group1,interaction,modal,6,Male,26,high,interaction,1.747425803,modal,5.622641509,1.913780141,4.830188679,1.553356775,4.79245283,1.633289396,5.20754717,1.245893108
228,2,high_entitlement,17,14156,,survey-likert,17,199135,0.0-17.0,15793,group3,interaction,wonder,4,Female,37,high,interaction,-0.252574197,embedded modal,5.622641509,1.913780141,4.830188679,1.553356775,4.79245283,1.633289396,5.20754717,1.245893108
229,2,high_entitlement,7,34173,,survey-likert,7,189320,0.0-7.0,41322,group2,interaction,direct,2,Male,30,high,interaction,-2.252574197,direct,5.622641509,1.913780141,4.830188679,1.553356775,4.79245283,1.633289396,5.20754717,1.245893108
230,2,high_entitlement,11,7839,,survey-likert,11,248686,0.0-11.0,14583,group2,interaction,direct,6,Male,32,high,interaction,1.747425803,direct,5.622641509,1.913780141,4.830188679,1.553356775,4.79245283,1.633289396,5.20754717,1.245893108
231,2,high_entitlement,14,5976,,survey-likert,14,138891,0.0-14.0,45596,group2,interaction,direct,0,Male,34,high,interaction,-4.252574197,direct,5.622641509,1.913780141,4.830188679,1.553356775,4.79245283,1.633289396,5.20754717,1.245893108
232,2,high_entitlement,15,10834,,survey-likert,15,133408,0.0-15.0,55429,group4,interaction,indirect,6,Female,23,high,interaction,1.747425803,indirect,5.622641509,1.913780141,4.830188679,1.553356775,4.79245283,1.633289396,5.20754717,1.245893108
233,2,high_entitlement,5,7019,,survey-likert,5,69796,0.0-5.0,96726,group2,interaction,direct,6,Female,24,high,interaction,1.747425803,direct,5.622641509,1.913780141,4.830188679,1.553356775,4.79245283,1.633289396,5.20754717,1.245893108
234,2,high_entitlement,10,4531,,survey-likert,10,116094,0.0-10.0,84778,group3,interaction,wonder,3,Female,28,high,interaction,-1.252574197,embedded modal,5.622641509,1.913780141,4.830188679,1.553356775,4.79245283,1.633289396,5.20754717,1.245893108
235,2,high_entitlement,17,13184,,survey-likert,17,408158,0.0-17.0,29160,group2,interaction,direct,4,Male,32,high,interaction,-0.252574197,direct,5.622641509,1.913780141,4.830188679,1.553356775,4.79245283,1.633289396,5.20754717,1.245893108
236,2,high_entitlement,14,10015,,survey-likert,14,413699,0.0-14.0,50739,group4,interaction,indirect,3,Female,38,high,interaction,-1.252574197,indirect,5.622641509,1.913780141,4.830188679,1.553356775,4.79245283,1.633289396,5.20754717,1.245893108
237,2,high_entitlement,13,5483,,survey-likert,13,119927,0.0-13.0,75477,group1,interaction,modal,4,Male,25,high,interaction,-0.252574197,modal,5.622641509,1.913780141,4.830188679,1.553356775,4.79245283,1.633289396,5.20754717,1.245893108
238,2,high_entitlement,7,1111,,survey-likert,7,295154,0.0-7.0,83487,group3,interaction,wonder,4,Female,28,high,interaction,-0.252574197,embedded modal,5.622641509,1.913780141,4.830188679,1.553356775,4.79245283,1.633289396,5.20754717,1.245893108
239,2,high_entitlement,6,9395,,survey-likert,6,81338,0.0-6.0,92110,group3,interaction,wonder,5,Female,39,high,interaction,0.747425803,embedded modal,5.622641509,1.913780141,4.830188679,1.553356775,4.79245283,1.633289396,5.20754717,1.245893108
240,2,high_entitlement,15,2117,,survey-likert,15,61078,0.0-15.0,98850,group1,interaction,modal,3,Male,33,high,interaction,-1.252574197,modal,5.622641509,1.913780141,4.830188679,1.553356775,4.79245283,1.633289396,5.20754717,1.245893108
241,2,high_entitlement,5,15508,,survey-likert,5,88641,0.0-5.0,18718,group2,interaction,direct,4,Male,39,high,interaction,-0.252574197,direct,5.622641509,1.913780141,4.830188679,1.553356775,4.79245283,1.633289396,5.20754717,1.245893108
242,2,high_entitlement,17,87611,,survey-likert,17,524014,0.0-17.0,92792,group3,interaction,wonder,6,Male,30,high,interaction,1.747425803,embedded modal,5.622641509,1.913780141,4.830188679,1.553356775,4.79245283,1.633289396,5.20754717,1.245893108
243,2,high_entitlement,11,98991,,survey-likert,11,491411,0.0-11.0,65042,group2,interaction,direct,4,Male,31,high,interaction,-0.252574197,direct,5.622641509,1.913780141,4.830188679,1.553356775,4.79245283,1.633289396,5.20754717,1.245893108
244,2,high_entitlement,19,9718,,survey-likert,19,287387,0.0-19.0,16019,group4,interaction,indirect,6,Female,34,high,interaction,1.747425803,indirect,5.622641509,1.913780141,4.830188679,1.553356775,4.79245283,1.633289396,5.20754717,1.245893108
245,2,high_entitlement,12,3739,,survey-likert,12,116065,0.0-12.0,42259,group3,interaction,wonder,6,Male,30,high,interaction,1.747425803,embedded modal,5.622641509,1.913780141,4.830188679,1.553356775,4.79245283,1.633289396,5.20754717,1.245893108
246,2,high_entitlement,12,45621,,survey-likert,12,221121,0.0-12.0,61656,group1,interaction,modal,6,Male,27,high,interaction,1.747425803,modal,5.622641509,1.913780141,4.830188679,1.553356775,4.79245283,1.633289396,5.20754717,1.245893108
247,2,high_entitlement,18,3332,,survey-likert,18,287077,0.0-18.0,29579,group1,interaction,modal,5,Male,28,high,interaction,0.747425803,modal,5.622641509,1.913780141,4.830188679,1.553356775,4.79245283,1.633289396,5.20754717,1.245893108
248,2,high_entitlement,9,3197,,survey-likert,9,65797,0.0-9.0,81953,group4,interaction,indirect,5,Female,42,high,interaction,0.747425803,indirect,5.622641509,1.913780141,4.830188679,1.553356775,4.79245283,1.633289396,5.20754717,1.245893108
249,2,high_entitlement,9,7425,,survey-likert,9,160869,0.0-9.0,21733,group4,interaction,indirect,6,Male,24,high,interaction,1.747425803,indirect,5.622641509,1.913780141,4.830188679,1.553356775,4.79245283,1.633289396,5.20754717,1.245893108
250,2,high_entitlement,11,13729,,survey-likert,11,263932,0.0-11.0,67329,group3,interaction,wonder,5,Female,28,high,interaction,0.747425803,embedded modal,5.622641509,1.913780141,4.830188679,1.553356775,4.79245283,1.633289396,5.20754717,1.245893108
251,2,high_entitlement,4,15760,,survey-likert,4,82575,0.0-4.0,9614,group4,interaction,indirect,5,Male,26,high,interaction,0.747425803,indirect,5.622641509,1.913780141,4.830188679,1.553356775,4.79245283,1.633289396,5.20754717,1.245893108
252,2,high_entitlement,18,10225,,survey-likert,18,284172,0.0-18.0,58588,group2,interaction,direct,3,Male,30,high,interaction,-1.252574197,direct,5.622641509,1.913780141,4.830188679,1.553356775,4.79245283,1.633289396,5.20754717,1.245893108
253,2,high_entitlement,19,3589,,survey-likert,19,188959,0.0-19.0,77109,group4,interaction,indirect,2,Female,39,high,interaction,-2.252574197,indirect,5.622641509,1.913780141,4.830188679,1.553356775,4.79245283,1.633289396,5.20754717,1.245893108
254,2,high_entitlement,2,20286,,survey-likert,2,77338,0.0-2.0,38200,group1,interaction,modal,2,Male,27,high,interaction,-2.252574197,modal,5.622641509,1.913780141,4.830188679,1.553356775,4.79245283,1.633289396,5.20754717,1.245893108
255,2,high_entitlement,17,3316,,survey-likert,17,211459,0.0-17.0,87176,group1,interaction,modal,4,Male,31,high,interaction,-0.252574197,modal,5.622641509,1.913780141,4.830188679,1.553356775,4.79245283,1.633289396,5.20754717,1.245893108
256,2,high_entitlement,19,3620,,survey-likert,19,301737,0.0-19.0,67486,group1,interaction,modal,6,Male,26,high,interaction,1.747425803,modal,5.622641509,1.913780141,4.830188679,1.553356775,4.79245283,1.633289396,5.20754717,1.245893108
257,2,high_entitlement,10,9624,,survey-likert,10,121301,0.0-10.0,19384,group2,interaction,direct,5,Male,33,high,interaction,0.747425803,direct,5.622641509,1.913780141,4.830188679,1.553356775,4.79245283,1.633289396,5.20754717,1.245893108
258,2,high_entitlement,6,11334,,survey-likert,6,130972,0.0-6.0,68260,group1,interaction,modal,6,Female,37,high,interaction,1.747425803,modal,5.622641509,1.913780141,4.830188679,1.553356775,4.79245283,1.633289396,5.20754717,1.245893108
259,2,high_entitlement,13,6172,,survey-likert,13,199164,0.0-13.0,16115,group2,interaction,direct,1,Male,34,high,interaction,-3.252574197,direct,5.622641509,1.913780141,4.830188679,1.553356775,4.79245283,1.633289396,5.20754717,1.245893108
260,2,high_entitlement,5,12540,,survey-likert,5,270447,0.0-5.0,62400,group4,interaction,indirect,5,Male,24,high,interaction,0.747425803,indirect,5.622641509,1.913780141,4.830188679,1.553356775,4.79245283,1.633289396,5.20754717,1.245893108
261,2,high_entitlement,3,2714,,survey-likert,3,2691628,0.0-3.0,70111,group4,interaction,indirect,5,Female,21,high,interaction,0.747425803,indirect,5.622641509,1.913780141,4.830188679,1.553356775,4.79245283,1.633289396,5.20754717,1.245893108
262,2,high_entitlement,3,5077,,survey-likert,3,73283,0.0-3.0,57291,group4,interaction,indirect,0,Male,23,high,interaction,-4.252574197,indirect,5.622641509,1.913780141,4.830188679,1.553356775,4.79245283,1.633289396,5.20754717,1.245893108
263,2,high_entitlement,14,10760,,survey-likert,14,270585,0.0-14.0,83017,group1,interaction,modal,5,Male,43,high,interaction,0.747425803,modal,5.622641509,1.913780141,4.830188679,1.553356775,4.79245283,1.633289396,5.20754717,1.245893108
264,2,high_entitlement,18,2894,,survey-likert,18,53990,0.0-18.0,27495,group2,interaction,direct,6,Male,22,high,interaction,1.747425803,direct,5.622641509,1.913780141,4.830188679,1.553356775,4.79245283,1.633289396,5.20754717,1.245893108
265,2,high_entitlement,14,3640,,survey-likert,14,177715,0.0-14.0,15639,group3,interaction,wonder,6,Male,25,high,interaction,1.747425803,embedded modal,5.622641509,1.913780141,4.830188679,1.553356775,4.79245283,1.633289396,5.20754717,1.245893108
266,2,high_entitlement,16,9012,,survey-likert,16,278472,0.0-16.0,92254,group3,interaction,wonder,6,Male,54,high,interaction,1.747425803,embedded modal,5.622641509,1.913780141,4.830188679,1.553356775,4.79245283,1.633289396,5.20754717,1.245893108
267,2,high_entitlement,10,6519,,survey-likert,10,128148,0.0-10.0,17737,group1,interaction,modal,6,Female,56,high,interaction,1.747425803,modal,5.622641509,1.913780141,4.830188679,1.553356775,4.79245283,1.633289396,5.20754717,1.245893108
268,2,high_entitlement,8,8751,,survey-likert,8,116145,0.0-8.0,23900,group2,interaction,direct,4,Male,27,high,interaction,-0.252574197,direct,5.622641509,1.913780141,4.830188679,1.553356775,4.79245283,1.633289396,5.20754717,1.245893108
269,2,high_entitlement,12,8312,,survey-likert,12,117337,0.0-12.0,54349,group4,interaction,indirect,4,Female,27,high,interaction,-0.252574197,indirect,5.622641509,1.913780141,4.830188679,1.553356775,4.79245283,1.633289396,5.20754717,1.245893108
270,2,high_entitlement,7,7491,,survey-likert,7,516406,0.0-7.0,46377,group3,interaction,wonder,6,Female,49,high,interaction,1.747425803,embedded modal,5.622641509,1.913780141,4.830188679,1.553356775,4.79245283,1.633289396,5.20754717,1.245893108
271,2,high_entitlement,7,7383,,survey-likert,7,202706,0.0-7.0,24477,group3,interaction,wonder,5,Male,55,high,interaction,0.747425803,embedded modal,5.622641509,1.913780141,4.830188679,1.553356775,4.79245283,1.633289396,5.20754717,1.245893108
272,2,high_entitlement,12,14317,,survey-likert,12,162127,0.0-12.0,65327,group2,interaction,direct,4,Female,47,high,interaction,-0.252574197,direct,5.622641509,1.913780141,4.830188679,1.553356775,4.79245283,1.633289396,5.20754717,1.245893108
273,2,high_entitlement,15,18503,,survey-likert,15,354593,0.0-15.0,53072,group2,interaction,direct,2,Male,26,high,interaction,-2.252574197,direct,5.622641509,1.913780141,4.830188679,1.553356775,4.79245283,1.633289396,5.20754717,1.245893108
274,2,high_entitlement,7,10822,,survey-likert,7,110380,0.0-7.0,22339,group4,interaction,indirect,3,Male,45,high,interaction,-1.252574197,indirect,5.622641509,1.913780141,4.830188679,1.553356775,4.79245283,1.633289396,5.20754717,1.245893108
275,2,high_entitlement,3,15525,,survey-likert,3,114792,0.0-3.0,66747,group1,interaction,modal,5,Male,23,high,interaction,0.747425803,modal,5.622641509,1.913780141,4.830188679,1.553356775,4.79245283,1.633289396,5.20754717,1.245893108
276,2,high_entitlement,3,28717,,survey-likert,3,140630,0.0-3.0,74693,group2,interaction,direct,5,Male,39,high,interaction,0.747425803,direct,5.622641509,1.913780141,4.830188679,1.553356775,4.79245283,1.633289396,5.20754717,1.245893108
277,2,high_entitlement,7,8153,,survey-likert,7,103091,0.0-7.0,38125,group4,interaction,indirect,2,Female,33,high,interaction,-2.252574197,indirect,5.622641509,1.913780141,4.830188679,1.553356775,4.79245283,1.633289396,5.20754717,1.245893108
278,2,high_entitlement,3,5001,,survey-likert,3,22749,0.0-3.0,46503,group3,interaction,wonder,4,Male,31,high,interaction,-0.252574197,embedded modal,5.622641509,1.913780141,4.830188679,1.553356775,4.79245283,1.633289396,5.20754717,1.245893108
279,2,high_entitlement,17,4157,,survey-likert,17,160508,0.0-17.0,58581,group2,interaction,direct,6,Female,27,high,interaction,1.747425803,direct,5.622641509,1.913780141,4.830188679,1.553356775,4.79245283,1.633289396,5.20754717,1.245893108
280,2,high_entitlement,3,11684,,survey-likert,3,39163,0.0-3.0,28767,group1,interaction,modal,6,Male,29,high,interaction,1.747425803,modal,5.622641509,1.913780141,4.830188679,1.553356775,4.79245283,1.633289396,5.20754717,1.245893108
281,2,high_entitlement,2,11111,,survey-likert,2,34549,0.0-2.0,11221,group1,interaction,modal,6,Male,20,high,interaction,1.747425803,modal,5.622641509,1.913780141,4.830188679,1.553356775,4.79245283,1.633289396,5.20754717,1.245893108
282,2,high_entitlement,8,7750,,survey-likert,8,368825,0.0-8.0,70202,group2,interaction,direct,5,Male,23,high,interaction,0.747425803,direct,5.622641509,1.913780141,4.830188679,1.553356775,4.79245283,1.633289396,5.20754717,1.245893108
283,2,high_entitlement,14,11534,,survey-likert,14,181424,0.0-14.0,71909,group4,interaction,indirect,4,Male,23,high,interaction,-0.252574197,indirect,5.622641509,1.913780141,4.830188679,1.553356775,4.79245283,1.633289396,5.20754717,1.245893108
284,2,high_entitlement,7,11192,,survey-likert,7,94792,0.0-7.0,50886,group2,interaction,direct,2,Female,44,high,interaction,-2.252574197,direct,5.622641509,1.913780141,4.830188679,1.553356775,4.79245283,1.633289396,5.20754717,1.245893108
285,2,high_entitlement,18,1458,,survey-likert,18,190793,0.0-18.0,72005,group2,interaction,direct,6,Male,24,high,interaction,1.747425803,direct,5.622641509,1.913780141,4.830188679,1.553356775,4.79245283,1.633289396,5.20754717,1.245893108
286,2,high_entitlement,7,2333,,survey-likert,7,148729,0.0-7.0,70835,group3,interaction,wonder,5,Male,27,high,interaction,0.747425803,embedded modal,5.622641509,1.913780141,4.830188679,1.553356775,4.79245283,1.633289396,5.20754717,1.245893108
287,2,high_entitlement,18,2945,,survey-likert,18,171169,0.0-18.0,15587,group4,interaction,indirect,3,Male,30,high,interaction,-1.252574197,indirect,5.622641509,1.913780141,4.830188679,1.553356775,4.79245283,1.633289396,5.20754717,1.245893108
288,2,high_entitlement,14,5219,,survey-likert,14,187041,0.0-14.0,65469,group1,interaction,modal,6,Female,24,high,interaction,1.747425803,modal,5.622641509,1.913780141,4.830188679,1.553356775,4.79245283,1.633289396,5.20754717,1.245893108
289,2,high_entitlement,4,10609,,survey-likert,4,63936,0.0-4.0,97825,group4,interaction,indirect,4,Male,30,high,interaction,-0.252574197,indirect,5.622641509,1.913780141,4.830188679,1.553356775,4.79245283,1.633289396,5.20754717,1.245893108
290,2,high_entitlement,13,4569,,survey-likert,13,131095,0.0-13.0,54578,group2,interaction,direct,5,Female,34,high,interaction,0.747425803,direct,5.622641509,1.913780141,4.830188679,1.553356775,4.79245283,1.633289396,5.20754717,1.245893108
291,2,high_entitlement,14,10235,,survey-likert,14,151539,0.0-14.0,2524,group4,interaction,indirect,3,Female,34,high,interaction,-1.252574197,indirect,5.622641509,1.913780141,4.830188679,1.553356775,4.79245283,1.633289396,5.20754717,1.245893108
292,2,high_entitlement,10,4178,,survey-likert,10,86685,0.0-10.0,86984,group2,interaction,direct,1,Male,22,high,interaction,-3.252574197,direct,5.622641509,1.913780141,4.830188679,1.553356775,4.79245283,1.633289396,5.20754717,1.245893108
293,2,high_entitlement,15,2489,,survey-likert,15,77704,0.0-15.0,64705,group2,interaction,direct,5,Male,36,high,interaction,0.747425803,direct,5.622641509,1.913780141,4.830188679,1.553356775,4.79245283,1.633289396,5.20754717,1.245893108
294,2,high_entitlement,11,10720,,survey-likert,11,194438,0.0-11.0,44059,group4,interaction,indirect,0,Female,32,high,interaction,-4.252574197,indirect,5.622641509,1.913780141,4.830188679,1.553356775,4.79245283,1.633289396,5.20754717,1.245893108
295,2,high_entitlement,18,16381,,survey-likert,18,257606,0.0-18.0,16731,group3,interaction,wonder,1,Male,26,high,interaction,-3.252574197,embedded modal,5.622641509,1.913780141,4.830188679,1.553356775,4.79245283,1.633289396,5.20754717,1.245893108
296,2,high_entitlement,5,9682,,survey-likert,5,179342,0.0-5.0,45082,group3,interaction,wonder,5,Female,51,high,interaction,0.747425803,embedded modal,5.622641509,1.913780141,4.830188679,1.553356775,4.79245283,1.633289396,5.20754717,1.245893108
297,2,high_entitlement,4,7758,,survey-likert,4,39972,0.0-4.0,1536,group2,interaction,direct,5,Male,34,high,interaction,0.747425803,direct,5.622641509,1.913780141,4.830188679,1.553356775,4.79245283,1.633289396,5.20754717,1.245893108
298,2,high_entitlement,17,17704,,survey-likert,17,92243,0.0-17.0,1147,group2,interaction,direct,3,Male,20,high,interaction,-1.252574197,direct,5.622641509,1.913780141,4.830188679,1.553356775,4.79245283,1.633289396,5.20754717,1.245893108
299,2,high_entitlement,14,4571,,survey-likert,14,207443,0.0-14.0,5100,group3,interaction,wonder,5,Male,45,high,interaction,0.747425803,embedded modal,5.622641509,1.913780141,4.830188679,1.553356775,4.79245283,1.633289396,5.20754717,1.245893108
300,2,high_entitlement,10,5158,,survey-likert,10,232903,0.0-10.0,53320,group1,interaction,modal,5,Female,33,high,interaction,0.747425803,modal,5.622641509,1.913780141,4.830188679,1.553356775,4.79245283,1.633289396,5.20754717,1.245893108
301,2,high_entitlement,7,12369,,survey-likert,7,569371,0.0-7.0,25173,group1,interaction,modal,6,Male,32,high,interaction,1.747425803,modal,5.622641509,1.913780141,4.830188679,1.553356775,4.79245283,1.633289396,5.20754717,1.245893108
302,2,high_entitlement,10,10646,,survey-likert,10,235301,0.0-10.0,86454,group1,interaction,modal,6,Male,62,high,interaction,1.747425803,modal,5.622641509,1.913780141,4.830188679,1.553356775,4.79245283,1.633289396,5.20754717,1.245893108
303,2,high_entitlement,15,1603,,survey-likert,15,119113,0.0-15.0,17266,group1,interaction,modal,6,Male,26,high,interaction,1.747425803,modal,5.622641509,1.913780141,4.830188679,1.553356775,4.79245283,1.633289396,5.20754717,1.245893108
304,2,high_entitlement,12,2899,,survey-likert,12,77285,0.0-12.0,98554,group1,interaction,modal,5,Male,36,high,interaction,0.747425803,modal,5.622641509,1.913780141,4.830188679,1.553356775,4.79245283,1.633289396,5.20754717,1.245893108
305,2,high_entitlement,12,16264,,survey-likert,12,176047,0.0-12.0,53235,group1,interaction,modal,6,Male,29,high,interaction,1.747425803,modal,5.622641509,1.913780141,4.830188679,1.553356775,4.79245283,1.633289396,5.20754717,1.245893108
306,2,high_entitlement,17,11067,,survey-likert,17,773900,0.0-17.0,67297,group3,interaction,wonder,5,Male,32,high,interaction,0.747425803,embedded modal,5.622641509,1.913780141,4.830188679,1.553356775,4.79245283,1.633289396,5.20754717,1.245893108
307,2,high_entitlement,16,5580,,survey-likert,16,200054,0.0-16.0,25948,group3,interaction,wonder,4,Male,41,high,interaction,-0.252574197,embedded modal,5.622641509,1.913780141,4.830188679,1.553356775,4.79245283,1.633289396,5.20754717,1.245893108
308,2,high_entitlement,19,9439,,survey-likert,19,301922,0.0-19.0,63264,group3,interaction,wonder,6,Female,28,high,interaction,1.747425803,embedded modal,5.622641509,1.913780141,4.830188679,1.553356775,4.79245283,1.633289396,5.20754717,1.245893108
309,2,low_entitlement,13,9679,,survey-likert,13,127187,0.0-13.0,13081,group4,interaction,indirect,5,Female,36,low,interaction,0.747425803,indirect,3.0625,2.025436648,5.9375,1.060033119,5.604166667,1.425297033,4.708333333,1.270924163
310,2,low_entitlement,4,12815,,survey-likert,4,144362,0.0-4.0,87309,group1,interaction,modal,4,Male,50,low,interaction,-0.252574197,modal,3.0625,2.025436648,5.9375,1.060033119,5.604166667,1.425297033,4.708333333,1.270924163
311,2,low_entitlement,5,17990,,survey-likert,5,86818,0.0-5.0,51964,group3,interaction,wonder,6,Female,36,low,interaction,1.747425803,embedded modal,3.0625,2.025436648,5.9375,1.060033119,5.604166667,1.425297033,4.708333333,1.270924163
312,2,low_entitlement,15,18140,,survey-likert,15,410415,0.0-15.0,55610,group1,interaction,modal,5,Male,70,low,interaction,0.747425803,modal,3.0625,2.025436648,5.9375,1.060033119,5.604166667,1.425297033,4.708333333,1.270924163
313,2,low_entitlement,3,11796,,survey-likert,3,47348,0.0-3.0,11221,group1,interaction,modal,4,Male,20,low,interaction,-0.252574197,modal,3.0625,2.025436648,5.9375,1.060033119,5.604166667,1.425297033,4.708333333,1.270924163
314,2,low_entitlement,13,7954,,survey-likert,13,205467,0.0-13.0,73278,group4,interaction,indirect,0,Female,59,low,interaction,-4.252574197,indirect,3.0625,2.025436648,5.9375,1.060033119,5.604166667,1.425297033,4.708333333,1.270924163
315,2,low_entitlement,3,9085,,survey-likert,3,57457,0.0-3.0,88735,group3,interaction,wonder,3,Male,63,low,interaction,-1.252574197,embedded modal,3.0625,2.025436648,5.9375,1.060033119,5.604166667,1.425297033,4.708333333,1.270924163
316,2,low_entitlement,17,7284,,survey-likert,17,723067,0.0-17.0,25173,group1,interaction,modal,3,Male,32,low,interaction,-1.252574197,modal,3.0625,2.025436648,5.9375,1.060033119,5.604166667,1.425297033,4.708333333,1.270924163
317,2,low_entitlement,13,17815,,survey-likert,13,329792,0.0-13.0,15364,group1,interaction,modal,3,Male,26,low,interaction,-1.252574197,modal,3.0625,2.025436648,5.9375,1.060033119,5.604166667,1.425297033,4.708333333,1.270924163
318,2,low_entitlement,3,19083,,survey-likert,3,131098,0.0-3.0,14583,group2,interaction,direct,6,Male,32,low,interaction,1.747425803,direct,3.0625,2.025436648,5.9375,1.060033119,5.604166667,1.425297033,4.708333333,1.270924163
319,2,low_entitlement,17,14428,,survey-likert,17,280530,0.0-17.0,63264,group3,interaction,wonder,0,Female,28,low,interaction,-4.252574197,embedded modal,3.0625,2.025436648,5.9375,1.060033119,5.604166667,1.425297033,4.708333333,1.270924163
320,2,low_entitlement,8,8636,,survey-likert,8,120020,0.0-8.0,22339,group4,interaction,indirect,3,Male,45,low,interaction,-1.252574197,indirect,3.0625,2.025436648,5.9375,1.060033119,5.604166667,1.425297033,4.708333333,1.270924163
321,2,low_entitlement,6,32632,,survey-likert,6,154144,0.0-6.0,41322,group2,interaction,direct,5,Male,30,low,interaction,0.747425803,direct,3.0625,2.025436648,5.9375,1.060033119,5.604166667,1.425297033,4.708333333,1.270924163
322,2,low_entitlement,4,11209,,survey-likert,4,61771,0.0-4.0,96726,group2,interaction,direct,6,Female,24,low,interaction,1.747425803,direct,3.0625,2.025436648,5.9375,1.060033119,5.604166667,1.425297033,4.708333333,1.270924163
323,2,low_entitlement,11,7656,,survey-likert,11,117701,0.0-11.0,45596,group2,interaction,direct,1,Male,34,low,interaction,-3.252574197,direct,3.0625,2.025436648,5.9375,1.060033119,5.604166667,1.425297033,4.708333333,1.270924163
324,2,low_entitlement,7,3709,,survey-likert,7,55996,0.0-7.0,1536,group2,interaction,direct,5,Male,34,low,interaction,0.747425803,direct,3.0625,2.025436648,5.9375,1.060033119,5.604166667,1.425297033,4.708333333,1.270924163
325,2,low_entitlement,11,30207,,survey-likert,11,190272,0.0-11.0,61076,group4,interaction,indirect,3,Female,33,low,interaction,-1.252574197,indirect,3.0625,2.025436648,5.9375,1.060033119,5.604166667,1.425297033,4.708333333,1.270924163
326,2,low_entitlement,5,11139,,survey-likert,5,491638,0.0-5.0,46377,group3,interaction,wonder,5,Female,49,low,interaction,0.747425803,embedded modal,3.0625,2.025436648,5.9375,1.060033119,5.604166667,1.425297033,4.708333333,1.270924163
327,2,low_entitlement,5,13311,,survey-likert,5,56909,0.0-5.0,77794,group3,interaction,wonder,4,Female,42,low,interaction,-0.252574197,embedded modal,3.0625,2.025436648,5.9375,1.060033119,5.604166667,1.425297033,4.708333333,1.270924163
328,2,low_entitlement,15,4882,,survey-likert,15,251601,0.0-15.0,84163,group1,interaction,modal,3,Female,26,low,interaction,-1.252574197,modal,3.0625,2.025436648,5.9375,1.060033119,5.604166667,1.425297033,4.708333333,1.270924163
329,2,low_entitlement,5,17471,,survey-likert,5,51929,0.0-5.0,42259,group3,interaction,wonder,5,Male,30,low,interaction,0.747425803,embedded modal,3.0625,2.025436648,5.9375,1.060033119,5.604166667,1.425297033,4.708333333,1.270924163
330,2,low_entitlement,17,864,,survey-likert,17,2717940,0.0-17.0,70111,group4,interaction,indirect,6,Female,21,low,interaction,1.747425803,indirect,3.0625,2.025436648,5.9375,1.060033119,5.604166667,1.425297033,4.708333333,1.270924163
331,2,low_entitlement,17,6677,,survey-likert,17,278749,0.0-17.0,16115,group2,interaction,direct,3,Male,34,low,interaction,-1.252574197,direct,3.0625,2.025436648,5.9375,1.060033119,5.604166667,1.425297033,4.708333333,1.270924163
332,2,low_entitlement,4,16017,,survey-likert,4,92590,0.0-4.0,74284,group4,interaction,indirect,3,Male,55,low,interaction,-1.252574197,indirect,3.0625,2.025436648,5.9375,1.060033119,5.604166667,1.425297033,4.708333333,1.270924163
333,2,low_entitlement,15,5883,,survey-likert,15,209325,0.0-15.0,21733,group4,interaction,indirect,5,Male,24,low,interaction,0.747425803,indirect,3.0625,2.025436648,5.9375,1.060033119,5.604166667,1.425297033,4.708333333,1.270924163
334,2,low_entitlement,8,13588,,survey-likert,8,130944,0.0-8.0,97825,group4,interaction,indirect,0,Male,30,low,interaction,-4.252574197,indirect,3.0625,2.025436648,5.9375,1.060033119,5.604166667,1.425297033,4.708333333,1.270924163
335,2,low_entitlement,8,24837,,survey-likert,8,242359,0.0-8.0,50739,group4,interaction,indirect,1,Female,38,low,interaction,-3.252574197,indirect,3.0625,2.025436648,5.9375,1.060033119,5.604166667,1.425297033,4.708333333,1.270924163
336,2,low_entitlement,5,3555,,survey-likert,5,87132,0.0-5.0,9614,group4,interaction,indirect,5,Male,26,low,interaction,0.747425803,indirect,3.0625,2.025436648,5.9375,1.060033119,5.604166667,1.425297033,4.708333333,1.270924163
337,2,low_entitlement,5,9841,,survey-likert,5,103510,0.0-5.0,58588,group2,interaction,direct,5,Male,30,low,interaction,0.747425803,direct,3.0625,2.025436648,5.9375,1.060033119,5.604166667,1.425297033,4.708333333,1.270924163
338,2,low_entitlement,4,6832,,survey-likert,4,63782,0.0-4.0,77109,group4,interaction,indirect,1,Female,39,low,interaction,-3.252574197,indirect,3.0625,2.025436648,5.9375,1.060033119,5.604166667,1.425297033,4.708333333,1.270924163
339,2,low_entitlement,14,1848,,survey-likert,14,314659,0.0-14.0,83487,group3,interaction,wonder,3,Female,28,low,interaction,-1.252574197,embedded modal,3.0625,2.025436648,5.9375,1.060033119,5.604166667,1.425297033,4.708333333,1.270924163
340,2,low_entitlement,3,9371,,survey-likert,3,59599,0.0-3.0,2524,group4,interaction,indirect,2,Female,34,low,interaction,-2.252574197,indirect,3.0625,2.025436648,5.9375,1.060033119,5.604166667,1.425297033,4.708333333,1.270924163
341,2,low_entitlement,3,9179,,survey-likert,3,52732,0.0-3.0,61656,group1,interaction,modal,3,Male,27,low,interaction,-1.252574197,modal,3.0625,2.025436648,5.9375,1.060033119,5.604166667,1.425297033,4.708333333,1.270924163
342,2,low_entitlement,8,5518,,survey-likert,8,135178,0.0-8.0,65469,group1,interaction,modal,5,Female,24,low,interaction,0.747425803,modal,3.0625,2.025436648,5.9375,1.060033119,5.604166667,1.425297033,4.708333333,1.270924163
343,2,low_entitlement,6,11020,,survey-likert,6,100081,0.0-6.0,79926,group4,interaction,indirect,1,Male,NA,low,interaction,-3.252574197,indirect,3.0625,2.025436648,5.9375,1.060033119,5.604166667,1.425297033,4.708333333,1.270924163
344,2,low_entitlement,13,64496,,survey-likert,13,286009,0.0-13.0,84774,group2,interaction,direct,0,Male,51,low,interaction,-4.252574197,direct,3.0625,2.025436648,5.9375,1.060033119,5.604166667,1.425297033,4.708333333,1.270924163
345,2,low_entitlement,19,10550,,survey-likert,19,597783,0.0-19.0,62400,group4,interaction,indirect,4,Male,24,low,interaction,-0.252574197,indirect,3.0625,2.025436648,5.9375,1.060033119,5.604166667,1.425297033,4.708333333,1.270924163
346,2,low_entitlement,12,4044,,survey-likert,12,199485,0.0-12.0,44059,group4,interaction,indirect,0,Female,32,low,interaction,-4.252574197,indirect,3.0625,2.025436648,5.9375,1.060033119,5.604166667,1.425297033,4.708333333,1.270924163
347,2,low_entitlement,19,4284,,survey-likert,19,114813,0.0-19.0,81953,group4,interaction,indirect,3,Female,42,low,interaction,-1.252574197,indirect,3.0625,2.025436648,5.9375,1.060033119,5.604166667,1.425297033,4.708333333,1.270924163
348,2,low_entitlement,5,2240,,survey-likert,5,34618,0.0-5.0,1147,group2,interaction,direct,3,Male,20,low,interaction,-1.252574197,direct,3.0625,2.025436648,5.9375,1.060033119,5.604166667,1.425297033,4.708333333,1.270924163
349,2,low_entitlement,9,643,,survey-likert,9,32862,0.0-9.0,27495,group2,interaction,direct,6,Male,22,low,interaction,1.747425803,direct,3.0625,2.025436648,5.9375,1.060033119,5.604166667,1.425297033,4.708333333,1.270924163
350,2,low_entitlement,16,3030,,survey-likert,16,94327,0.0-16.0,98554,group1,interaction,modal,5,Male,36,low,interaction,0.747425803,modal,3.0625,2.025436648,5.9375,1.060033119,5.604166667,1.425297033,4.708333333,1.270924163
351,2,low_entitlement,16,8868,,survey-likert,16,312646,0.0-16.0,67329,group3,interaction,wonder,5,Female,28,low,interaction,0.747425803,embedded modal,3.0625,2.025436648,5.9375,1.060033119,5.604166667,1.425297033,4.708333333,1.270924163
352,2,low_entitlement,15,4844,,survey-likert,15,203162,0.0-15.0,87176,group1,interaction,modal,5,Male,31,low,interaction,0.747425803,modal,3.0625,2.025436648,5.9375,1.060033119,5.604166667,1.425297033,4.708333333,1.270924163
353,2,low_entitlement,11,6625,,survey-likert,11,272713,0.0-11.0,29160,group2,interaction,direct,4,Male,32,low,interaction,-0.252574197,direct,3.0625,2.025436648,5.9375,1.060033119,5.604166667,1.425297033,4.708333333,1.270924163
354,2,low_entitlement,5,8419,,survey-likert,5,56133,0.0-5.0,55429,group4,interaction,indirect,6,Female,23,low,interaction,1.747425803,indirect,3.0625,2.025436648,5.9375,1.060033119,5.604166667,1.425297033,4.708333333,1.270924163
355,2,low_entitlement,11,11285,,survey-likert,11,146807,0.0-11.0,65327,group2,interaction,direct,6,Female,47,low,interaction,1.747425803,direct,3.0625,2.025436648,5.9375,1.060033119,5.604166667,1.425297033,4.708333333,1.270924163
356,2,low_entitlement,8,9310,,survey-likert,8,440832,0.0-8.0,2654,group3,interaction,wonder,2,Male,27,low,interaction,-2.252574197,embedded modal,3.0625,2.025436648,5.9375,1.060033119,5.604166667,1.425297033,4.708333333,1.270924163
357,2,low_entitlement,9,21757,,survey-likert,9,185856,0.0-9.0,68260,group1,interaction,modal,2,Female,37,low,interaction,-2.252574197,modal,3.0625,2.025436648,5.9375,1.060033119,5.604166667,1.425297033,4.708333333,1.270924163
358,2,low_entitlement,18,7439,,survey-likert,18,396260,0.0-18.0,53072,group2,interaction,direct,0,Male,26,low,interaction,-4.252574197,direct,3.0625,2.025436648,5.9375,1.060033119,5.604166667,1.425297033,4.708333333,1.270924163
359,2,low_entitlement,17,6692,,survey-likert,17,207749,0.0-17.0,25948,group3,interaction,wonder,4,Male,41,low,interaction,-0.252574197,embedded modal,3.0625,2.025436648,5.9375,1.060033119,5.604166667,1.425297033,4.708333333,1.270924163
360,2,low_entitlement,2,16006,,survey-likert,2,59698,0.0-2.0,16731,group3,interaction,wonder,4,Male,26,low,interaction,-0.252574197,embedded modal,3.0625,2.025436648,5.9375,1.060033119,5.604166667,1.425297033,4.708333333,1.270924163
361,2,low_entitlement,3,6843,,survey-likert,3,48313,0.0-3.0,58581,group2,interaction,direct,5,Female,27,low,interaction,0.747425803,direct,3.0625,2.025436648,5.9375,1.060033119,5.604166667,1.425297033,4.708333333,1.270924163
362,2,low_entitlement,13,8864,,survey-likert,13,258821,0.0-13.0,83017,group1,interaction,modal,6,Male,43,low,interaction,1.747425803,modal,3.0625,2.025436648,5.9375,1.060033119,5.604166667,1.425297033,4.708333333,1.270924163
363,2,low_entitlement,4,7088,,survey-likert,4,61711,0.0-4.0,54349,group4,interaction,indirect,2,Female,27,low,interaction,-2.252574197,indirect,3.0625,2.025436648,5.9375,1.060033119,5.604166667,1.425297033,4.708333333,1.270924163
364,2,low_entitlement,6,1754,,survey-likert,6,30101,0.0-6.0,98850,group1,interaction,modal,4,Male,33,low,interaction,-0.252574197,modal,3.0625,2.025436648,5.9375,1.060033119,5.604166667,1.425297033,4.708333333,1.270924163
365,2,low_entitlement,7,8798,,survey-likert,7,106386,0.0-7.0,23900,group2,interaction,direct,4,Male,27,low,interaction,-0.252574197,direct,3.0625,2.025436648,5.9375,1.060033119,5.604166667,1.425297033,4.708333333,1.270924163
366,2,low_entitlement,15,9182,,survey-likert,15,168389,0.0-15.0,50886,group2,interaction,direct,0,Female,44,low,interaction,-4.252574197,direct,3.0625,2.025436648,5.9375,1.060033119,5.604166667,1.425297033,4.708333333,1.270924163
367,2,low_entitlement,4,9495,,survey-likert,4,61664,0.0-4.0,67486,group1,interaction,modal,6,Male,26,low,interaction,1.747425803,modal,3.0625,2.025436648,5.9375,1.060033119,5.604166667,1.425297033,4.708333333,1.270924163
368,2,low_entitlement,2,26099,,survey-likert,2,69754,0.0-2.0,24477,group3,interaction,wonder,5,Male,55,low,interaction,0.747425803,embedded modal,3.0625,2.025436648,5.9375,1.060033119,5.604166667,1.425297033,4.708333333,1.270924163
369,2,low_entitlement,14,3925,,survey-likert,14,265789,0.0-14.0,29579,group1,interaction,modal,5,Male,28,low,interaction,0.747425803,modal,3.0625,2.025436648,5.9375,1.060033119,5.604166667,1.425297033,4.708333333,1.270924163
370,2,low_entitlement,2,11266,,survey-likert,2,76676,0.0-2.0,16019,group4,interaction,indirect,6,Female,34,low,interaction,1.747425803,indirect,3.0625,2.025436648,5.9375,1.060033119,5.604166667,1.425297033,4.708333333,1.270924163
371,2,low_entitlement,14,7861,,survey-likert,14,187908,0.0-14.0,19384,group2,interaction,direct,1,Male,33,low,interaction,-3.252574197,direct,3.0625,2.025436648,5.9375,1.060033119,5.604166667,1.425297033,4.708333333,1.270924163
372,2,low_entitlement,10,3699,,survey-likert,10,55708,0.0-10.0,46503,group3,interaction,wonder,4,Male,31,low,interaction,-0.252574197,embedded modal,3.0625,2.025436648,5.9375,1.060033119,5.604166667,1.425297033,4.708333333,1.270924163
373,2,low_entitlement,18,3854,,survey-likert,18,213946,0.0-18.0,3430,group2,interaction,direct,3,Female,23,low,interaction,-1.252574197,direct,3.0625,2.025436648,5.9375,1.060033119,5.604166667,1.425297033,4.708333333,1.270924163
374,2,low_entitlement,7,38921,,survey-likert,7,360071,0.0-7.0,70202,group2,interaction,direct,1,Male,23,low,interaction,-3.252574197,direct,3.0625,2.025436648,5.9375,1.060033119,5.604166667,1.425297033,4.708333333,1.270924163
375,2,low_entitlement,2,11529,,survey-likert,2,39587,0.0-2.0,53235,group1,interaction,modal,6,Male,29,low,interaction,1.747425803,modal,3.0625,2.025436648,5.9375,1.060033119,5.604166667,1.425297033,4.708333333,1.270924163
376,2,low_entitlement,4,2246,,survey-likert,4,30459,0.0-4.0,64705,group2,interaction,direct,5,Male,36,low,interaction,0.747425803,direct,3.0625,2.025436648,5.9375,1.060033119,5.604166667,1.425297033,4.708333333,1.270924163
377,2,low_entitlement,11,6245,,survey-likert,11,119904,0.0-11.0,54578,group2,interaction,direct,1,Female,34,low,interaction,-3.252574197,direct,3.0625,2.025436648,5.9375,1.060033119,5.604166667,1.425297033,4.708333333,1.270924163
378,2,low_entitlement,19,13797,,survey-likert,19,803406,0.0-19.0,67297,group3,interaction,wonder,2,Male,32,low,interaction,-2.252574197,embedded modal,3.0625,2.025436648,5.9375,1.060033119,5.604166667,1.425297033,4.708333333,1.270924163
379,2,low_entitlement,3,19458,,survey-likert,3,97800,0.0-3.0,38200,group1,interaction,modal,1,Male,27,low,interaction,-3.252574197,modal,3.0625,2.025436648,5.9375,1.060033119,5.604166667,1.425297033,4.708333333,1.270924163
380,2,low_entitlement,13,9732,,survey-likert,13,156536,0.0-13.0,15793,group3,interaction,wonder,4,Female,37,low,interaction,-0.252574197,embedded modal,3.0625,2.025436648,5.9375,1.060033119,5.604166667,1.425297033,4.708333333,1.270924163
381,2,low_entitlement,13,16210,,survey-likert,13,385165,0.0-13.0,92792,group3,interaction,wonder,6,Male,30,low,interaction,1.747425803,embedded modal,3.0625,2.025436648,5.9375,1.060033119,5.604166667,1.425297033,4.708333333,1.270924163
382,2,low_entitlement,8,2793,,survey-likert,8,137261,0.0-8.0,72005,group2,interaction,direct,6,Male,24,low,interaction,1.747425803,direct,3.0625,2.025436648,5.9375,1.060033119,5.604166667,1.425297033,4.708333333,1.270924163
383,2,low_entitlement,14,3670,,survey-likert,14,104241,0.0-14.0,33044,group2,interaction,direct,4,Male,22,low,interaction,-0.252574197,direct,3.0625,2.025436648,5.9375,1.060033119,5.604166667,1.425297033,4.708333333,1.270924163
384,2,low_entitlement,2,21404,,survey-likert,2,48325,0.0-2.0,95722,group4,interaction,indirect,4,Male,40,low,interaction,-0.252574197,indirect,3.0625,2.025436648,5.9375,1.060033119,5.604166667,1.425297033,4.708333333,1.270924163
385,2,low_entitlement,16,8318,,survey-likert,16,247973,0.0-16.0,57291,group4,interaction,indirect,0,Male,23,low,interaction,-4.252574197,indirect,3.0625,2.025436648,5.9375,1.060033119,5.604166667,1.425297033,4.708333333,1.270924163
386,2,low_entitlement,3,2644,,survey-likert,3,80881,0.0-3.0,84778,group3,interaction,wonder,2,Female,28,low,interaction,-2.252574197,embedded modal,3.0625,2.025436648,5.9375,1.060033119,5.604166667,1.425297033,4.708333333,1.270924163
387,2,low_entitlement,6,9151,,survey-likert,6,93643,0.0-6.0,17737,group1,interaction,modal,6,Female,56,low,interaction,1.747425803,modal,3.0625,2.025436648,5.9375,1.060033119,5.604166667,1.425297033,4.708333333,1.270924163
388,2,low_entitlement,7,40445,,survey-likert,7,262238,0.0-7.0,74693,group2,interaction,direct,1,Male,39,low,interaction,-3.252574197,direct,3.0625,2.025436648,5.9375,1.060033119,5.604166667,1.425297033,4.708333333,1.270924163
389,2,low_entitlement,13,12982,,survey-likert,13,168887,0.0-13.0,71909,group4,interaction,indirect,5,Male,23,low,interaction,0.747425803,indirect,3.0625,2.025436648,5.9375,1.060033119,5.604166667,1.425297033,4.708333333,1.270924163
390,2,low_entitlement,12,9866,,survey-likert,12,260481,0.0-12.0,53320,group1,interaction,modal,5,Female,33,low,interaction,0.747425803,modal,3.0625,2.025436648,5.9375,1.060033119,5.604166667,1.425297033,4.708333333,1.270924163
391,2,low_entitlement,15,6584,,survey-likert,15,518248,0.0-15.0,28898,group1,interaction,modal,6,Female,60,low,interaction,1.747425803,modal,3.0625,2.025436648,5.9375,1.060033119,5.604166667,1.425297033,4.708333333,1.270924163
392,2,low_entitlement,10,64589,,survey-likert,10,391418,0.0-10.0,65042,group2,interaction,direct,3,Male,31,low,interaction,-1.252574197,direct,3.0625,2.025436648,5.9375,1.060033119,5.604166667,1.425297033,4.708333333,1.270924163
393,2,low_entitlement,15,5292,,survey-likert,15,199721,0.0-15.0,18718,group2,interaction,direct,0,Male,39,low,interaction,-4.252574197,direct,3.0625,2.025436648,5.9375,1.060033119,5.604166667,1.425297033,4.708333333,1.270924163
394,2,low_entitlement,6,5147,,survey-likert,6,61593,0.0-6.0,15587,group4,interaction,indirect,6,Male,30,low,interaction,1.747425803,indirect,3.0625,2.025436648,5.9375,1.060033119,5.604166667,1.425297033,4.708333333,1.270924163
395,2,low_entitlement,14,8117,,survey-likert,14,303741,0.0-14.0,66747,group1,interaction,modal,0,Male,23,low,interaction,-4.252574197,modal,3.0625,2.025436648,5.9375,1.060033119,5.604166667,1.425297033,4.708333333,1.270924163
396,2,low_entitlement,14,6774,,survey-likert,14,171883,0.0-14.0,90363,group1,interaction,modal,5,Male,35,low,interaction,0.747425803,modal,3.0625,2.025436648,5.9375,1.060033119,5.604166667,1.425297033,4.708333333,1.270924163
397,2,low_entitlement,4,17293,,survey-likert,4,168659,0.0-4.0,45082,group3,interaction,wonder,2,Female,51,low,interaction,-2.252574197,embedded modal,3.0625,2.025436648,5.9375,1.060033119,5.604166667,1.425297033,4.708333333,1.270924163
398,2,low_entitlement,19,1887,,survey-likert,19,131884,0.0-19.0,86984,group2,interaction,direct,3,Male,22,low,interaction,-1.252574197,direct,3.0625,2.025436648,5.9375,1.060033119,5.604166667,1.425297033,4.708333333,1.270924163
399,2,low_entitlement,2,9854,,survey-likert,2,35943,0.0-2.0,5100,group3,interaction,wonder,4,Male,45,low,interaction,-0.252574197,embedded modal,3.0625,2.025436648,5.9375,1.060033119,5.604166667,1.425297033,4.708333333,1.270924163
400,2,low_entitlement,11,4948,,survey-likert,11,192005,0.0-11.0,45552,group2,interaction,direct,2,Male,24,low,interaction,-2.252574197,direct,3.0625,2.025436648,5.9375,1.060033119,5.604166667,1.425297033,4.708333333,1.270924163
401,2,low_entitlement,18,4020,,survey-likert,18,171907,0.0-18.0,75477,group1,interaction,modal,4,Male,25,low,interaction,-0.252574197,modal,3.0625,2.025436648,5.9375,1.060033119,5.604166667,1.425297033,4.708333333,1.270924163
402,2,low_entitlement,7,4123,,survey-likert,7,100623,0.0-7.0,20708,group1,interaction,modal,5,Female,27,low,interaction,0.747425803,modal,3.0625,2.025436648,5.9375,1.060033119,5.604166667,1.425297033,4.708333333,1.270924163
403,2,low_entitlement,5,4172,,survey-likert,5,141994,0.0-5.0,70835,group3,interaction,wonder,6,Male,27,low,interaction,1.747425803,embedded modal,3.0625,2.025436648,5.9375,1.060033119,5.604166667,1.425297033,4.708333333,1.270924163
404,2,low_entitlement,10,8731,,survey-likert,10,135313,0.0-10.0,92110,group3,interaction,wonder,5,Female,39,low,interaction,0.747425803,embedded modal,3.0625,2.025436648,5.9375,1.060033119,5.604166667,1.425297033,4.708333333,1.270924163
405,2,low_entitlement,10,9917,,survey-likert,10,134562,0.0-10.0,49017,group4,interaction,indirect,5,Male,35,low,interaction,0.747425803,indirect,3.0625,2.025436648,5.9375,1.060033119,5.604166667,1.425297033,4.708333333,1.270924163
406,2,low_entitlement,14,21572,,survey-likert,14,253493,0.0-14.0,92254,group3,interaction,wonder,6,Male,54,low,interaction,1.747425803,embedded modal,3.0625,2.025436648,5.9375,1.060033119,5.604166667,1.425297033,4.708333333,1.270924163
407,2,low_entitlement,8,4332,,survey-likert,8,111340,0.0-8.0,15639,group3,interaction,wonder,5,Male,25,low,interaction,0.747425803,embedded modal,3.0625,2.025436648,5.9375,1.060033119,5.604166667,1.425297033,4.708333333,1.270924163
408,2,low_entitlement,6,9118,,survey-likert,6,93934,0.0-6.0,38125,group4,interaction,indirect,1,Female,33,low,interaction,-3.252574197,indirect,3.0625,2.025436648,5.9375,1.060033119,5.604166667,1.425297033,4.708333333,1.270924163
409,2,low_entitlement,2,24123,,survey-likert,2,100943,0.0-2.0,86454,group1,interaction,modal,6,Male,62,low,interaction,1.747425803,modal,3.0625,2.025436648,5.9375,1.060033119,5.604166667,1.425297033,4.708333333,1.270924163
410,2,low_entitlement,10,4614,,survey-likert,10,285738,0.0-10.0,47769,group2,interaction,direct,0,Female,41,low,interaction,-4.252574197,direct,3.0625,2.025436648,5.9375,1.060033119,5.604166667,1.425297033,4.708333333,1.270924163
411,2,low_entitlement,16,6321,,survey-likert,16,150116,0.0-16.0,28767,group1,interaction,modal,4,Male,29,low,interaction,-0.252574197,modal,3.0625,2.025436648,5.9375,1.060033119,5.604166667,1.425297033,4.708333333,1.270924163
412,2,low_entitlement,14,1835,,survey-likert,14,116504,0.0-14.0,17266,group1,interaction,modal,6,Male,26,low,interaction,1.747425803,modal,3.0625,2.025436648,5.9375,1.060033119,5.604166667,1.425297033,4.708333333,1.270924163
413,3,high_entitlement,16,19572,,survey-likert,16,328911,0.0-16.0,84774,group2,relationship,modal,6,Male,51,high,relationship,1.747425803,modal,5.270833333,1.620868999,3.979166667,1.850699504,3.787234043,2.254812922,4.083333333,1.350072233
414,3,high_entitlement,17,11527,,survey-likert,17,259148,0.0-17.0,73278,group4,relationship,direct,6,Female,59,high,relationship,1.747425803,direct,5.270833333,1.620868999,3.979166667,1.850699504,3.787234043,2.254812922,4.083333333,1.350072233
415,3,high_entitlement,14,16239,,survey-likert,14,387490,0.0-14.0,41322,group2,relationship,modal,6,Male,30,high,relationship,1.747425803,modal,5.270833333,1.620868999,3.979166667,1.850699504,3.787234043,2.254812922,4.083333333,1.350072233
416,3,high_entitlement,11,6679,,survey-likert,11,159079,0.0-11.0,79926,group4,relationship,direct,6,Male,NA,high,relationship,1.747425803,direct,5.270833333,1.620868999,3.979166667,1.850699504,3.787234043,2.254812922,4.083333333,1.350072233
417,3,high_entitlement,3,16416,,survey-likert,3,117247,0.0-3.0,15364,group1,relationship,wonder,6,Male,26,high,relationship,1.747425803,embedded modal,5.270833333,1.620868999,3.979166667,1.850699504,3.787234043,2.254812922,4.083333333,1.350072233
418,3,high_entitlement,19,5156,,survey-likert,19,278603,0.0-19.0,84163,group1,relationship,wonder,6,Female,26,high,relationship,1.747425803,embedded modal,5.270833333,1.620868999,3.979166667,1.850699504,3.787234043,2.254812922,4.083333333,1.350072233
419,3,high_entitlement,10,37845,,survey-likert,10,271474,0.0-10.0,87309,group1,relationship,wonder,5,Male,50,high,relationship,0.747425803,embedded modal,5.270833333,1.620868999,3.979166667,1.850699504,3.787234043,2.254812922,4.083333333,1.350072233
420,3,high_entitlement,18,3867,,survey-likert,18,109526,0.0-18.0,81953,group4,relationship,direct,5,Female,42,high,relationship,0.747425803,direct,5.270833333,1.620868999,3.979166667,1.850699504,3.787234043,2.254812922,4.083333333,1.350072233
421,3,high_entitlement,5,8372,,survey-likert,5,64052,0.0-5.0,61076,group4,relationship,direct,6,Female,33,high,relationship,1.747425803,direct,5.270833333,1.620868999,3.979166667,1.850699504,3.787234043,2.254812922,4.083333333,1.350072233
422,3,high_entitlement,12,5883,,survey-likert,12,186939,0.0-12.0,87176,group1,relationship,wonder,5,Male,31,high,relationship,0.747425803,embedded modal,5.270833333,1.620868999,3.979166667,1.850699504,3.787234043,2.254812922,4.083333333,1.350072233
423,3,high_entitlement,6,9217,,survey-likert,6,67127,0.0-6.0,77794,group3,relationship,indirect,3,Female,42,high,relationship,-1.252574197,indirect,5.270833333,1.620868999,3.979166667,1.850699504,3.787234043,2.254812922,4.083333333,1.350072233
