stimNum,stimType,rt,trial_type,trial_index,subject,group,formatting,answer,Gender,Age,condition,situation,judgment,formatting.relabel,mean_entitlement,sd_entitlement,mean_imposition,sd_imposition,mean_power,sd_power,mean_distance,sd_distance
1,high_entitlement,1590,survey-likert,6,1147,group2,indirect,3,Male,20,high,interaction,-1.252574197,indirect,5.25,1.850819255,3.6875,1.652287261,4.333333333,1.310080935,4.708333333,1.090741176
1,high_entitlement,34726,survey-likert,9,50739,group4,wonder,5,Female,38,high,interaction,0.747425803,embedded modal,5.25,1.850819255,3.6875,1.652287261,4.333333333,1.310080935,4.708333333,1.090741176
1,high_entitlement,16402,survey-likert,8,67329,group3,modal,4,Female,28,high,interaction,-0.252574197,modal,5.25,1.850819255,3.6875,1.652287261,4.333333333,1.310080935,4.708333333,1.090741176
1,high_entitlement,4469,survey-likert,7,98554,group1,direct,3,Male,36,high,interaction,-1.252574197,direct,5.25,1.850819255,3.6875,1.652287261,4.333333333,1.310080935,4.708333333,1.090741176
1,high_entitlement,27007,survey-likert,5,65042,group2,indirect,3,Male,31,high,interaction,-1.252574197,indirect,5.25,1.850819255,3.6875,1.652287261,4.333333333,1.310080935,4.708333333,1.090741176
1,high_entitlement,5143,survey-likert,19,45596,group2,indirect,0,Male,34,high,interaction,-4.252574197,indirect,5.25,1.850819255,3.6875,1.652287261,4.333333333,1.310080935,4.708333333,1.090741176
1,high_entitlement,4035,survey-likert,13,87176,group1,direct,6,Male,31,high,interaction,1.747425803,direct,5.25,1.850819255,3.6875,1.652287261,4.333333333,1.310080935,4.708333333,1.090741176
1,high_entitlement,22228,survey-likert,19,29160,group2,indirect,4,Male,32,high,interaction,-0.252574197,indirect,5.25,1.850819255,3.6875,1.652287261,4.333333333,1.310080935,4.708333333,1.090741176
1,high_entitlement,2937,survey-likert,19,55429,group4,wonder,6,Female,23,high,interaction,1.747425803,embedded modal,5.25,1.850819255,3.6875,1.652287261,4.333333333,1.310080935,4.708333333,1.090741176
1,high_entitlement,14805,survey-likert,18,25173,group1,direct,6,Male,32,high,interaction,1.747425803,direct,5.25,1.850819255,3.6875,1.652287261,4.333333333,1.310080935,4.708333333,1.090741176
1,high_entitlement,11338,survey-likert,18,73278,group4,wonder,6,Female,59,high,interaction,1.747425803,embedded modal,5.25,1.850819255,3.6875,1.652287261,4.333333333,1.310080935,4.708333333,1.090741176
1,high_entitlement,9969,survey-likert,18,96726,group2,indirect,3,Female,24,high,interaction,-1.252574197,indirect,5.25,1.850819255,3.6875,1.652287261,4.333333333,1.310080935,4.708333333,1.090741176
1,high_entitlement,6112,survey-likert,12,90363,group1,direct,5,Male,35,high,interaction,0.747425803,direct,5.25,1.850819255,3.6875,1.652287261,4.333333333,1.310080935,4.708333333,1.090741176
1,high_entitlement,16078,survey-likert,8,63264,group3,modal,6,Female,28,high,interaction,1.747425803,modal,5.25,1.850819255,3.6875,1.652287261,4.333333333,1.310080935,4.708333333,1.090741176
1,high_entitlement,11657,survey-likert,11,45082,group3,modal,5,Female,51,high,interaction,0.747425803,modal,5.25,1.850819255,3.6875,1.652287261,4.333333333,1.310080935,4.708333333,1.090741176
1,high_entitlement,8475,survey-likert,15,38125,group4,wonder,6,Female,33,high,interaction,1.747425803,embedded modal,5.25,1.850819255,3.6875,1.652287261,4.333333333,1.310080935,4.708333333,1.090741176
1,high_entitlement,6933,survey-likert,11,1536,group2,indirect,4,Male,34,high,interaction,-0.252574197,indirect,5.25,1.850819255,3.6875,1.652287261,4.333333333,1.310080935,4.708333333,1.090741176
1,high_entitlement,4497,survey-likert,13,23900,group2,indirect,1,Male,27,high,interaction,-3.252574197,indirect,5.25,1.850819255,3.6875,1.652287261,4.333333333,1.310080935,4.708333333,1.090741176
1,high_entitlement,9836,survey-likert,12,50886,group2,indirect,3,Female,44,high,interaction,-1.252574197,indirect,5.25,1.850819255,3.6875,1.652287261,4.333333333,1.310080935,4.708333333,1.090741176
1,high_entitlement,11877,survey-likert,8,67486,group1,direct,3,Male,26,high,interaction,-1.252574197,direct,5.25,1.850819255,3.6875,1.652287261,4.333333333,1.310080935,4.708333333,1.090741176
1,high_entitlement,38287,survey-likert,2,87309,group1,direct,2,Male,50,high,interaction,-2.252574197,direct,5.25,1.850819255,3.6875,1.652287261,4.333333333,1.310080935,4.708333333,1.090741176
1,high_entitlement,13767,survey-likert,8,65327,group2,indirect,5,Female,47,high,interaction,0.747425803,indirect,5.25,1.850819255,3.6875,1.652287261,4.333333333,1.310080935,4.708333333,1.090741176
1,high_entitlement,15870,survey-likert,19,14583,group2,indirect,6,Male,32,high,interaction,1.747425803,indirect,5.25,1.850819255,3.6875,1.652287261,4.333333333,1.310080935,4.708333333,1.090741176
1,high_entitlement,6901,survey-likert,7,29579,group1,direct,3,Male,28,high,interaction,-1.252574197,direct,5.25,1.850819255,3.6875,1.652287261,4.333333333,1.310080935,4.708333333,1.090741176
1,high_entitlement,27158,survey-likert,8,55610,group1,direct,5,Male,70,high,interaction,0.747425803,direct,5.25,1.850819255,3.6875,1.652287261,4.333333333,1.310080935,4.708333333,1.090741176
1,high_entitlement,11713,survey-likert,4,53235,group1,direct,6,Male,29,high,interaction,1.747425803,direct,5.25,1.850819255,3.6875,1.652287261,4.333333333,1.310080935,4.708333333,1.090741176
1,high_entitlement,12354,survey-likert,12,74284,group4,wonder,3,Male,55,high,interaction,-1.252574197,embedded modal,5.25,1.850819255,3.6875,1.652287261,4.333333333,1.310080935,4.708333333,1.090741176
1,high_entitlement,11593,survey-likert,3,97825,group4,wonder,6,Male,30,high,interaction,1.747425803,embedded modal,5.25,1.850819255,3.6875,1.652287261,4.333333333,1.310080935,4.708333333,1.090741176
1,high_entitlement,1836,survey-likert,8,17266,group1,direct,4,Male,26,high,interaction,-0.252574197,direct,5.25,1.850819255,3.6875,1.652287261,4.333333333,1.310080935,4.708333333,1.090741176
1,high_entitlement,3323,survey-likert,13,45552,group2,indirect,5,Male,24,high,interaction,0.747425803,indirect,5.25,1.850819255,3.6875,1.652287261,4.333333333,1.310080935,4.708333333,1.090741176
1,high_entitlement,3025,survey-likert,16,15639,group3,modal,6,Male,25,high,interaction,1.747425803,modal,5.25,1.850819255,3.6875,1.652287261,4.333333333,1.310080935,4.708333333,1.090741176
1,high_entitlement,1476,survey-likert,4,83487,group3,modal,4,Female,28,high,interaction,-0.252574197,modal,5.25,1.850819255,3.6875,1.652287261,4.333333333,1.310080935,4.708333333,1.090741176
1,high_entitlement,6661,survey-likert,4,2524,group4,wonder,5,Female,34,high,interaction,0.747425803,embedded modal,5.25,1.850819255,3.6875,1.652287261,4.333333333,1.310080935,4.708333333,1.090741176
1,high_entitlement,25111,survey-likert,14,24477,group3,modal,6,Male,55,high,interaction,1.747425803,modal,5.25,1.850819255,3.6875,1.652287261,4.333333333,1.310080935,4.708333333,1.090741176
1,high_entitlement,12664,survey-likert,10,68260,group1,direct,4,Female,37,high,interaction,-0.252574197,direct,5.25,1.850819255,3.6875,1.652287261,4.333333333,1.310080935,4.708333333,1.090741176
1,high_entitlement,7730,survey-likert,17,19384,group2,indirect,4,Male,33,high,interaction,-0.252574197,indirect,5.25,1.850819255,3.6875,1.652287261,4.333333333,1.310080935,4.708333333,1.090741176
1,high_entitlement,18460,survey-likert,4,65469,group1,direct,3,Female,24,high,interaction,-1.252574197,direct,5.25,1.850819255,3.6875,1.652287261,4.333333333,1.310080935,4.708333333,1.090741176
1,high_entitlement,4195,survey-likert,12,88735,group3,modal,1,Male,63,high,interaction,-3.252574197,modal,5.25,1.850819255,3.6875,1.652287261,4.333333333,1.310080935,4.708333333,1.090741176
1,high_entitlement,17278,survey-likert,17,15364,group1,direct,5,Male,26,high,interaction,0.747425803,direct,5.25,1.850819255,3.6875,1.652287261,4.333333333,1.310080935,4.708333333,1.090741176
1,high_entitlement,1960,survey-likert,4,33044,group2,indirect,5,Male,22,high,interaction,0.747425803,indirect,5.25,1.850819255,3.6875,1.652287261,4.333333333,1.310080935,4.708333333,1.090741176
1,high_entitlement,8572,survey-likert,12,5100,group3,modal,4,Male,45,high,interaction,-0.252574197,modal,5.25,1.850819255,3.6875,1.652287261,4.333333333,1.310080935,4.708333333,1.090741176
1,high_entitlement,15689,survey-likert,11,53320,group1,direct,4,Female,33,high,interaction,-0.252574197,direct,5.25,1.850819255,3.6875,1.652287261,4.333333333,1.310080935,4.708333333,1.090741176
1,high_entitlement,23197,survey-likert,16,74693,group2,indirect,6,Male,39,high,interaction,1.747425803,indirect,5.25,1.850819255,3.6875,1.652287261,4.333333333,1.310080935,4.708333333,1.090741176
1,high_entitlement,2412,survey-likert,17,70835,group3,modal,5,Male,27,high,interaction,0.747425803,modal,5.25,1.850819255,3.6875,1.652287261,4.333333333,1.310080935,4.708333333,1.090741176
1,high_entitlement,8781,survey-likert,2,15793,group3,modal,3,Female,37,high,interaction,-1.252574197,modal,5.25,1.850819255,3.6875,1.652287261,4.333333333,1.310080935,4.708333333,1.090741176
1,high_entitlement,9420,survey-likert,17,92254,group3,modal,1,Male,54,high,interaction,-3.252574197,modal,5.25,1.850819255,3.6875,1.652287261,4.333333333,1.310080935,4.708333333,1.090741176
1,high_entitlement,39591,survey-likert,2,41322,group2,indirect,6,Male,30,high,interaction,1.747425803,indirect,5.25,1.850819255,3.6875,1.652287261,4.333333333,1.310080935,4.708333333,1.090741176
1,high_entitlement,33501,survey-likert,13,2654,group3,modal,4,Male,27,high,interaction,-0.252574197,modal,5.25,1.850819255,3.6875,1.652287261,4.333333333,1.310080935,4.708333333,1.090741176
1,high_entitlement,5134,survey-likert,8,77794,group3,modal,3,Female,42,high,interaction,-1.252574197,modal,5.25,1.850819255,3.6875,1.652287261,4.333333333,1.310080935,4.708333333,1.090741176
1,high_entitlement,11742,survey-likert,7,61656,group1,direct,1,Male,27,high,interaction,-3.252574197,direct,5.25,1.850819255,3.6875,1.652287261,4.333333333,1.310080935,4.708333333,1.090741176
1,high_entitlement,21161,survey-likert,17,53072,group2,indirect,3,Male,26,high,interaction,-1.252574197,indirect,5.25,1.850819255,3.6875,1.652287261,4.333333333,1.310080935,4.708333333,1.090741176
1,high_entitlement,918,survey-likert,7,70111,group4,wonder,4,Female,21,high,interaction,-0.252574197,embedded modal,5.25,1.850819255,3.6875,1.652287261,4.333333333,1.310080935,4.708333333,1.090741176
1,high_entitlement,17509,survey-likert,2,47769,group2,indirect,4,Female,41,high,interaction,-0.252574197,indirect,5.25,1.850819255,3.6875,1.652287261,4.333333333,1.310080935,4.708333333,1.090741176
1,high_entitlement,9130,survey-likert,7,15587,group4,wonder,5,Male,30,high,interaction,0.747425803,embedded modal,5.25,1.850819255,3.6875,1.652287261,4.333333333,1.310080935,4.708333333,1.090741176
1,high_entitlement,5398,survey-likert,10,58581,group2,indirect,6,Female,27,high,interaction,1.747425803,indirect,5.25,1.850819255,3.6875,1.652287261,4.333333333,1.310080935,4.708333333,1.090741176
1,high_entitlement,7442,survey-likert,11,54349,group4,wonder,6,Female,27,high,interaction,1.747425803,embedded modal,5.25,1.850819255,3.6875,1.652287261,4.333333333,1.310080935,4.708333333,1.090741176
1,high_entitlement,3238,survey-likert,6,9614,group4,wonder,0,Male,26,high,interaction,-4.252574197,embedded modal,5.25,1.850819255,3.6875,1.652287261,4.333333333,1.310080935,4.708333333,1.090741176
1,high_entitlement,7267,survey-likert,9,75477,group1,direct,3,Male,25,high,interaction,-1.252574197,direct,5.25,1.850819255,3.6875,1.652287261,4.333333333,1.310080935,4.708333333,1.090741176
1,high_entitlement,11798,survey-likert,8,71909,group4,wonder,5,Male,23,high,interaction,0.747425803,embedded modal,5.25,1.850819255,3.6875,1.652287261,4.333333333,1.310080935,4.708333333,1.090741176
1,high_entitlement,1953,survey-likert,5,98850,group1,direct,2,Male,33,high,interaction,-2.252574197,direct,5.25,1.850819255,3.6875,1.652287261,4.333333333,1.310080935,4.708333333,1.090741176
1,high_entitlement,15266,survey-likert,6,46377,group3,modal,6,Female,49,high,interaction,1.747425803,modal,5.25,1.850819255,3.6875,1.652287261,4.333333333,1.310080935,4.708333333,1.090741176
1,high_entitlement,13567,survey-likert,14,92792,group3,modal,6,Male,30,high,interaction,1.747425803,modal,5.25,1.850819255,3.6875,1.652287261,4.333333333,1.310080935,4.708333333,1.090741176
1,high_entitlement,16142,survey-likert,3,51964,group3,modal,1,Female,36,high,interaction,-3.252574197,modal,5.25,1.850819255,3.6875,1.652287261,4.333333333,1.310080935,4.708333333,1.090741176
1,high_entitlement,15683,survey-likert,2,3430,group2,indirect,6,Female,23,high,interaction,1.747425803,indirect,5.25,1.850819255,3.6875,1.652287261,4.333333333,1.310080935,4.708333333,1.090741176
1,high_entitlement,15068,survey-likert,4,25948,group3,modal,4,Male,41,high,interaction,-0.252574197,modal,5.25,1.850819255,3.6875,1.652287261,4.333333333,1.310080935,4.708333333,1.090741176
1,high_entitlement,12416,survey-likert,10,79926,group4,wonder,5,Male,NA,high,interaction,0.747425803,embedded modal,5.25,1.850819255,3.6875,1.652287261,4.333333333,1.310080935,4.708333333,1.090741176
1,high_entitlement,9329,survey-likert,4,70202,group2,indirect,5,Male,23,high,interaction,0.747425803,indirect,5.25,1.850819255,3.6875,1.652287261,4.333333333,1.310080935,4.708333333,1.090741176
1,high_entitlement,19588,survey-likert,14,21733,group4,wonder,6,Male,24,high,interaction,1.747425803,embedded modal,5.25,1.850819255,3.6875,1.652287261,4.333333333,1.310080935,4.708333333,1.090741176
1,high_entitlement,16634,survey-likert,9,92110,group3,modal,6,Female,39,high,interaction,1.747425803,modal,5.25,1.850819255,3.6875,1.652287261,4.333333333,1.310080935,4.708333333,1.090741176
1,high_entitlement,15675,survey-likert,11,58588,group2,indirect,4,Male,30,high,interaction,-0.252574197,indirect,5.25,1.850819255,3.6875,1.652287261,4.333333333,1.310080935,4.708333333,1.090741176
1,high_entitlement,6000,survey-likert,2,64705,group2,indirect,5,Male,36,high,interaction,0.747425803,indirect,5.25,1.850819255,3.6875,1.652287261,4.333333333,1.310080935,4.708333333,1.090741176
1,high_entitlement,15426,survey-likert,8,38200,group1,direct,6,Male,27,high,interaction,1.747425803,direct,5.25,1.850819255,3.6875,1.652287261,4.333333333,1.310080935,4.708333333,1.090741176
1,high_entitlement,6892,survey-likert,17,11221,group1,direct,0,Male,20,high,interaction,-4.252574197,direct,5.25,1.850819255,3.6875,1.652287261,4.333333333,1.310080935,4.708333333,1.090741176
1,high_entitlement,8525,survey-likert,15,77109,group4,wonder,5,Female,39,high,interaction,0.747425803,embedded modal,5.25,1.850819255,3.6875,1.652287261,4.333333333,1.310080935,4.708333333,1.090741176
1,high_entitlement,3610,survey-likert,7,72005,group2,indirect,6,Male,24,high,interaction,1.747425803,indirect,5.25,1.850819255,3.6875,1.652287261,4.333333333,1.310080935,4.708333333,1.090741176
1,high_entitlement,5196,survey-likert,10,84163,group1,direct,0,Female,26,high,interaction,-4.252574197,direct,5.25,1.850819255,3.6875,1.652287261,4.333333333,1.310080935,4.708333333,1.090741176
1,high_entitlement,3781,survey-likert,14,95722,group4,wonder,6,Male,40,high,interaction,1.747425803,embedded modal,5.25,1.850819255,3.6875,1.652287261,4.333333333,1.310080935,4.708333333,1.090741176
1,high_entitlement,3403,survey-likert,18,46503,group3,modal,4,Male,31,high,interaction,-0.252574197,modal,5.25,1.850819255,3.6875,1.652287261,4.333333333,1.310080935,4.708333333,1.090741176
1,high_entitlement,18071,survey-likert,3,44059,group4,wonder,6,Female,32,high,interaction,1.747425803,embedded modal,5.25,1.850819255,3.6875,1.652287261,4.333333333,1.310080935,4.708333333,1.090741176
1,high_entitlement,187060,survey-likert,12,62400,group4,wonder,2,Male,24,high,interaction,-2.252574197,embedded modal,5.25,1.850819255,3.6875,1.652287261,4.333333333,1.310080935,4.708333333,1.090741176
1,high_entitlement,18979,survey-likert,7,57291,group4,wonder,4,Male,23,high,interaction,-0.252574197,embedded modal,5.25,1.850819255,3.6875,1.652287261,4.333333333,1.310080935,4.708333333,1.090741176
1,high_entitlement,6474,survey-likert,15,81953,group4,wonder,5,Female,42,high,interaction,0.747425803,embedded modal,5.25,1.850819255,3.6875,1.652287261,4.333333333,1.310080935,4.708333333,1.090741176
1,high_entitlement,12852,survey-likert,6,22339,group4,wonder,5,Male,45,high,interaction,0.747425803,embedded modal,5.25,1.850819255,3.6875,1.652287261,4.333333333,1.310080935,4.708333333,1.090741176
1,high_entitlement,10744,survey-likert,12,17737,group1,direct,0,Female,56,high,interaction,-4.252574197,direct,5.25,1.850819255,3.6875,1.652287261,4.333333333,1.310080935,4.708333333,1.090741176
1,high_entitlement,12410,survey-likert,9,28767,group1,direct,4,Male,29,high,interaction,-0.252574197,direct,5.25,1.850819255,3.6875,1.652287261,4.333333333,1.310080935,4.708333333,1.090741176
1,high_entitlement,11000,survey-likert,4,54578,group2,indirect,2,Female,34,high,interaction,-2.252574197,indirect,5.25,1.850819255,3.6875,1.652287261,4.333333333,1.310080935,4.708333333,1.090741176
1,high_entitlement,5897,survey-likert,11,86984,group2,indirect,2,Male,22,high,interaction,-2.252574197,indirect,5.25,1.850819255,3.6875,1.652287261,4.333333333,1.310080935,4.708333333,1.090741176
1,high_entitlement,28698,survey-likert,14,61076,group4,wonder,6,Female,33,high,interaction,1.747425803,embedded modal,5.25,1.850819255,3.6875,1.652287261,4.333333333,1.310080935,4.708333333,1.090741176
1,high_entitlement,9173,survey-likert,4,13081,group4,wonder,6,Female,36,high,interaction,1.747425803,embedded modal,5.25,1.850819255,3.6875,1.652287261,4.333333333,1.310080935,4.708333333,1.090741176
1,high_entitlement,13043,survey-likert,18,16019,group4,wonder,6,Female,34,high,interaction,1.747425803,embedded modal,5.25,1.850819255,3.6875,1.652287261,4.333333333,1.310080935,4.708333333,1.090741176
1,high_entitlement,8975,survey-likert,8,20708,group1,direct,1,Female,27,high,interaction,-3.252574197,direct,5.25,1.850819255,3.6875,1.652287261,4.333333333,1.310080935,4.708333333,1.090741176
1,high_entitlement,4020,survey-likert,18,16115,group2,indirect,4,Male,34,high,interaction,-0.252574197,indirect,5.25,1.850819255,3.6875,1.652287261,4.333333333,1.310080935,4.708333333,1.090741176
1,high_entitlement,42064,survey-likert,3,16731,group3,modal,5,Male,26,high,interaction,0.747425803,modal,5.25,1.850819255,3.6875,1.652287261,4.333333333,1.310080935,4.708333333,1.090741176
1,high_entitlement,31310,survey-likert,7,66747,group1,direct,5,Male,23,high,interaction,0.747425803,direct,5.25,1.850819255,3.6875,1.652287261,4.333333333,1.310080935,4.708333333,1.090741176
1,high_entitlement,12680,survey-likert,10,83017,group1,direct,2,Male,43,high,interaction,-2.252574197,direct,5.25,1.850819255,3.6875,1.652287261,4.333333333,1.310080935,4.708333333,1.090741176
1,high_entitlement,6231,survey-likert,16,49017,group4,wonder,5,Male,35,high,interaction,0.747425803,embedded modal,5.25,1.850819255,3.6875,1.652287261,4.333333333,1.310080935,4.708333333,1.090741176
1,high_entitlement,21606,survey-likert,16,86454,group1,direct,5,Male,62,high,interaction,0.747425803,direct,5.25,1.850819255,3.6875,1.652287261,4.333333333,1.310080935,4.708333333,1.090741176
1,high_entitlement,18387,survey-likert,7,84774,group2,indirect,3,Male,51,high,interaction,-1.252574197,indirect,5.25,1.850819255,3.6875,1.652287261,4.333333333,1.310080935,4.708333333,1.090741176
1,high_entitlement,1273,survey-likert,6,27495,group2,indirect,4,Male,22,high,interaction,-0.252574197,indirect,5.25,1.850819255,3.6875,1.652287261,4.333333333,1.310080935,4.708333333,1.090741176
1,high_entitlement,8385,survey-likert,17,42259,group3,modal,4,Male,30,high,interaction,-0.252574197,modal,5.25,1.850819255,3.6875,1.652287261,4.333333333,1.310080935,4.708333333,1.090741176
1,high_entitlement,13180,survey-likert,19,18718,group2,indirect,5,Male,39,high,interaction,0.747425803,indirect,5.25,1.850819255,3.6875,1.652287261,4.333333333,1.310080935,4.708333333,1.090741176
1,high_entitlement,16629,survey-likert,14,67297,group3,modal,5,Male,32,high,interaction,0.747425803,modal,5.25,1.850819255,3.6875,1.652287261,4.333333333,1.310080935,4.708333333,1.090741176
1,high_entitlement,3685,survey-likert,7,84778,group3,modal,4,Female,28,high,interaction,-0.252574197,modal,5.25,1.850819255,3.6875,1.652287261,4.333333333,1.310080935,4.708333333,1.090741176
1,low_entitlement,31326,survey-likert,16,66747,group1,direct,4,Male,23,low,interaction,-0.252574197,direct,4.038461538,1.781842387,5.288461538,1.257706261,5.019230769,1.244444669,4.769230769,1.24641265
1,low_entitlement,13620,survey-likert,7,65042,group2,indirect,3,Male,31,low,interaction,-1.252574197,indirect,4.038461538,1.781842387,5.288461538,1.257706261,5.019230769,1.244444669,4.769230769,1.24641265
1,low_entitlement,8353,survey-likert,12,50739,group4,wonder,5,Female,38,low,interaction,0.747425803,embedded modal,4.038461538,1.781842387,5.288461538,1.257706261,5.019230769,1.244444669,4.769230769,1.24641265
1,low_entitlement,4606,survey-likert,13,77794,group3,modal,3,Female,42,low,interaction,-1.252574197,modal,4.038461538,1.781842387,5.288461538,1.257706261,5.019230769,1.244444669,4.769230769,1.24641265
1,low_entitlement,19100,survey-likert,9,70202,group2,indirect,4,Male,23,low,interaction,-0.252574197,indirect,4.038461538,1.781842387,5.288461538,1.257706261,5.019230769,1.244444669,4.769230769,1.24641265
1,low_entitlement,5697,survey-likert,19,20708,group1,direct,0,Female,27,low,interaction,-4.252574197,direct,4.038461538,1.781842387,5.288461538,1.257706261,5.019230769,1.244444669,4.769230769,1.24641265
1,low_entitlement,14604,survey-likert,3,73278,group4,wonder,6,Female,59,low,interaction,1.747425803,embedded modal,4.038461538,1.781842387,5.288461538,1.257706261,5.019230769,1.244444669,4.769230769,1.24641265
1,low_entitlement,5432,survey-likert,7,21733,group4,wonder,6,Male,24,low,interaction,1.747425803,embedded modal,4.038461538,1.781842387,5.288461538,1.257706261,5.019230769,1.244444669,4.769230769,1.24641265
1,low_entitlement,21775,survey-likert,8,87176,group1,direct,6,Male,31,low,interaction,1.747425803,direct,4.038461538,1.781842387,5.288461538,1.257706261,5.019230769,1.244444669,4.769230769,1.24641265
1,low_entitlement,9383,survey-likert,17,71909,group4,wonder,5,Male,23,low,interaction,0.747425803,embedded modal,4.038461538,1.781842387,5.288461538,1.257706261,5.019230769,1.244444669,4.769230769,1.24641265
1,low_entitlement,6898,survey-likert,11,28898,group1,direct,0,Female,60,low,interaction,-4.252574197,direct,4.038461538,1.781842387,5.288461538,1.257706261,5.019230769,1.244444669,4.769230769,1.24641265
1,low_entitlement,3532,survey-likert,17,45552,group2,indirect,0,Male,24,low,interaction,-4.252574197,indirect,4.038461538,1.781842387,5.288461538,1.257706261,5.019230769,1.244444669,4.769230769,1.24641265
1,low_entitlement,19400,survey-likert,16,68260,group1,direct,1,Female,37,low,interaction,-3.252574197,direct,4.038461538,1.781842387,5.288461538,1.257706261,5.019230769,1.244444669,4.769230769,1.24641265
1,low_entitlement,3959,survey-likert,7,88735,group3,modal,1,Male,63,low,interaction,-3.252574197,modal,4.038461538,1.781842387,5.288461538,1.257706261,5.019230769,1.244444669,4.769230769,1.24641265
1,low_entitlement,14041,survey-likert,7,79926,group4,wonder,5,Male,NA,low,interaction,0.747425803,embedded modal,4.038461538,1.781842387,5.288461538,1.257706261,5.019230769,1.244444669,4.769230769,1.24641265
1,low_entitlement,64307,survey-likert,16,87309,group1,direct,0,Male,50,low,interaction,-4.252574197,direct,4.038461538,1.781842387,5.288461538,1.257706261,5.019230769,1.244444669,4.769230769,1.24641265
1,low_entitlement,6770,survey-likert,7,5100,group3,modal,3,Male,45,low,interaction,-1.252574197,modal,4.038461538,1.781842387,5.288461538,1.257706261,5.019230769,1.244444669,4.769230769,1.24641265
1,low_entitlement,17389,survey-likert,13,57291,group4,wonder,3,Male,23,low,interaction,-1.252574197,embedded modal,4.038461538,1.781842387,5.288461538,1.257706261,5.019230769,1.244444669,4.769230769,1.24641265
1,low_entitlement,7458,survey-likert,4,83017,group1,direct,1,Male,43,low,interaction,-3.252574197,direct,4.038461538,1.781842387,5.288461538,1.257706261,5.019230769,1.244444669,4.769230769,1.24641265
1,low_entitlement,6894,survey-likert,19,65469,group1,direct,1,Female,24,low,interaction,-3.252574197,direct,4.038461538,1.781842387,5.288461538,1.257706261,5.019230769,1.244444669,4.769230769,1.24641265
1,low_entitlement,13738,survey-likert,10,67329,group3,modal,4,Female,28,low,interaction,-0.252574197,modal,4.038461538,1.781842387,5.288461538,1.257706261,5.019230769,1.244444669,4.769230769,1.24641265
1,low_entitlement,2180,survey-likert,3,98850,group1,direct,3,Male,33,low,interaction,-1.252574197,direct,4.038461538,1.781842387,5.288461538,1.257706261,5.019230769,1.244444669,4.769230769,1.24641265
1,low_entitlement,29651,survey-likert,8,92254,group3,modal,1,Male,54,low,interaction,-3.252574197,modal,4.038461538,1.781842387,5.288461538,1.257706261,5.019230769,1.244444669,4.769230769,1.24641265
1,low_entitlement,14672,survey-likert,4,45596,group2,indirect,1,Male,34,low,interaction,-3.252574197,indirect,4.038461538,1.781842387,5.288461538,1.257706261,5.019230769,1.244444669,4.769230769,1.24641265
1,low_entitlement,12119,survey-likert,8,19384,group2,indirect,3,Male,33,low,interaction,-1.252574197,indirect,4.038461538,1.781842387,5.288461538,1.257706261,5.019230769,1.244444669,4.769230769,1.24641265
1,low_entitlement,4759,survey-likert,19,2654,group3,modal,5,Male,27,low,interaction,0.747425803,modal,4.038461538,1.781842387,5.288461538,1.257706261,5.019230769,1.244444669,4.769230769,1.24641265
1,low_entitlement,4275,survey-likert,11,55429,group4,wonder,6,Female,23,low,interaction,1.747425803,embedded modal,4.038461538,1.781842387,5.288461538,1.257706261,5.019230769,1.244444669,4.769230769,1.24641265
1,low_entitlement,8203,survey-likert,14,13081,group4,wonder,6,Female,36,low,interaction,1.747425803,embedded modal,4.038461538,1.781842387,5.288461538,1.257706261,5.019230769,1.244444669,4.769230769,1.24641265
1,low_entitlement,41597,survey-likert,6,53072,group2,indirect,5,Male,26,low,interaction,0.747425803,indirect,4.038461538,1.781842387,5.288461538,1.257706261,5.019230769,1.244444669,4.769230769,1.24641265
1,low_entitlement,4615,survey-likert,11,16731,group3,modal,4,Male,26,low,interaction,-0.252574197,modal,4.038461538,1.781842387,5.288461538,1.257706261,5.019230769,1.244444669,4.769230769,1.24641265
1,low_entitlement,9366,survey-likert,6,96726,group2,indirect,4,Female,24,low,interaction,-0.252574197,indirect,4.038461538,1.781842387,5.288461538,1.257706261,5.019230769,1.244444669,4.769230769,1.24641265
1,low_entitlement,37260,survey-likert,2,63264,group3,modal,3,Female,28,low,interaction,-1.252574197,modal,4.038461538,1.781842387,5.288461538,1.257706261,5.019230769,1.244444669,4.769230769,1.24641265
1,low_entitlement,17000,survey-likert,7,45082,group3,modal,4,Female,51,low,interaction,-0.252574197,modal,4.038461538,1.781842387,5.288461538,1.257706261,5.019230769,1.244444669,4.769230769,1.24641265
1,low_entitlement,13705,survey-likert,11,58581,group2,indirect,4,Female,27,low,interaction,-0.252574197,indirect,4.038461538,1.781842387,5.288461538,1.257706261,5.019230769,1.244444669,4.769230769,1.24641265
1,low_entitlement,3170,survey-likert,15,98554,group1,direct,3,Male,36,low,interaction,-1.252574197,direct,4.038461538,1.781842387,5.288461538,1.257706261,5.019230769,1.244444669,4.769230769,1.24641265
1,low_entitlement,6703,survey-likert,6,23900,group2,indirect,2,Male,27,low,interaction,-2.252574197,indirect,4.038461538,1.781842387,5.288461538,1.257706261,5.019230769,1.244444669,4.769230769,1.24641265
1,low_entitlement,4989,survey-likert,15,1536,group2,indirect,4,Male,34,low,interaction,-0.252574197,indirect,4.038461538,1.781842387,5.288461538,1.257706261,5.019230769,1.244444669,4.769230769,1.24641265
1,low_entitlement,12615,survey-likert,11,92792,group3,modal,6,Male,30,low,interaction,1.747425803,modal,4.038461538,1.781842387,5.288461538,1.257706261,5.019230769,1.244444669,4.769230769,1.24641265
1,low_entitlement,10588,survey-likert,11,16019,group4,wonder,6,Female,34,low,interaction,1.747425803,embedded modal,4.038461538,1.781842387,5.288461538,1.257706261,5.019230769,1.244444669,4.769230769,1.24641265
1,low_entitlement,9774,survey-likert,10,65327,group2,indirect,4,Female,47,low,interaction,-0.252574197,indirect,4.038461538,1.781842387,5.288461538,1.257706261,5.019230769,1.244444669,4.769230769,1.24641265
1,low_entitlement,14931,survey-likert,5,61656,group1,direct,2,Male,27,low,interaction,-2.252574197,direct,4.038461538,1.781842387,5.288461538,1.257706261,5.019230769,1.244444669,4.769230769,1.24641265
1,low_entitlement,9293,survey-likert,13,29579,group1,direct,6,Male,28,low,interaction,1.747425803,direct,4.038461538,1.781842387,5.288461538,1.257706261,5.019230769,1.244444669,4.769230769,1.24641265
1,low_entitlement,14898,survey-likert,5,74284,group4,wonder,5,Male,55,low,interaction,0.747425803,embedded modal,4.038461538,1.781842387,5.288461538,1.257706261,5.019230769,1.244444669,4.769230769,1.24641265
1,low_entitlement,6605,survey-likert,14,3430,group2,indirect,4,Female,23,low,interaction,-0.252574197,indirect,4.038461538,1.781842387,5.288461538,1.257706261,5.019230769,1.244444669,4.769230769,1.24641265
1,low_entitlement,9083,survey-likert,10,25948,group3,modal,4,Male,41,low,interaction,-0.252574197,modal,4.038461538,1.781842387,5.288461538,1.257706261,5.019230769,1.244444669,4.769230769,1.24641265
1,low_entitlement,29123,survey-likert,5,97825,group4,wonder,5,Male,30,low,interaction,0.747425803,embedded modal,4.038461538,1.781842387,5.288461538,1.257706261,5.019230769,1.244444669,4.769230769,1.24641265
1,low_entitlement,7429,survey-likert,15,49017,group4,wonder,5,Male,35,low,interaction,0.747425803,embedded modal,4.038461538,1.781842387,5.288461538,1.257706261,5.019230769,1.244444669,4.769230769,1.24641265
1,low_entitlement,8051,survey-likert,14,92110,group3,modal,2,Female,39,low,interaction,-2.252574197,modal,4.038461538,1.781842387,5.288461538,1.257706261,5.019230769,1.244444669,4.769230769,1.24641265
1,low_entitlement,4019,survey-likert,14,64705,group2,indirect,4,Male,36,low,interaction,-0.252574197,indirect,4.038461538,1.781842387,5.288461538,1.257706261,5.019230769,1.244444669,4.769230769,1.24641265
1,low_entitlement,6768,survey-likert,8,77109,group4,wonder,4,Female,39,low,interaction,-0.252574197,embedded modal,4.038461538,1.781842387,5.288461538,1.257706261,5.019230769,1.244444669,4.769230769,1.24641265
1,low_entitlement,1666,survey-likert,9,83487,group3,modal,4,Female,28,low,interaction,-0.252574197,modal,4.038461538,1.781842387,5.288461538,1.257706261,5.019230769,1.244444669,4.769230769,1.24641265
1,low_entitlement,71917,survey-likert,3,24477,group3,modal,4,Male,55,low,interaction,-0.252574197,modal,4.038461538,1.781842387,5.288461538,1.257706261,5.019230769,1.244444669,4.769230769,1.24641265
1,low_entitlement,4210,survey-likert,19,72005,group2,indirect,6,Male,24,low,interaction,1.747425803,indirect,4.038461538,1.781842387,5.288461538,1.257706261,5.019230769,1.244444669,4.769230769,1.24641265
1,low_entitlement,26724,survey-likert,10,51964,group3,modal,5,Female,36,low,interaction,0.747425803,modal,4.038461538,1.781842387,5.288461538,1.257706261,5.019230769,1.244444669,4.769230769,1.24641265
1,low_entitlement,11988,survey-likert,6,16115,group2,indirect,3,Male,34,low,interaction,-1.252574197,indirect,4.038461538,1.781842387,5.288461538,1.257706261,5.019230769,1.244444669,4.769230769,1.24641265
1,low_entitlement,28640,survey-likert,14,15364,group1,direct,1,Male,26,low,interaction,-3.252574197,direct,4.038461538,1.781842387,5.288461538,1.257706261,5.019230769,1.244444669,4.769230769,1.24641265
1,low_entitlement,21999,survey-likert,4,62400,group4,wonder,5,Male,24,low,interaction,0.747425803,embedded modal,4.038461538,1.781842387,5.288461538,1.257706261,5.019230769,1.244444669,4.769230769,1.24641265
1,low_entitlement,2778,survey-likert,11,81953,group4,wonder,4,Female,42,low,interaction,-0.252574197,embedded modal,4.038461538,1.781842387,5.288461538,1.257706261,5.019230769,1.244444669,4.769230769,1.24641265
1,low_entitlement,33284,survey-likert,12,74693,group2,indirect,2,Male,39,low,interaction,-2.252574197,indirect,4.038461538,1.781842387,5.288461538,1.257706261,5.019230769,1.244444669,4.769230769,1.24641265
1,low_entitlement,4152,survey-likert,18,53320,group1,direct,4,Female,33,low,interaction,-0.252574197,direct,4.038461538,1.781842387,5.288461538,1.257706261,5.019230769,1.244444669,4.769230769,1.24641265
1,low_entitlement,1671,survey-likert,14,1147,group2,indirect,4,Male,20,low,interaction,-0.252574197,indirect,4.038461538,1.781842387,5.288461538,1.257706261,5.019230769,1.244444669,4.769230769,1.24641265
1,low_entitlement,18748,survey-likert,10,70835,group3,modal,5,Male,27,low,interaction,0.747425803,modal,4.038461538,1.781842387,5.288461538,1.257706261,5.019230769,1.244444669,4.769230769,1.24641265
1,low_entitlement,14620,survey-likert,12,22339,group4,wonder,5,Male,45,low,interaction,0.747425803,embedded modal,4.038461538,1.781842387,5.288461538,1.257706261,5.019230769,1.244444669,4.769230769,1.24641265
1,low_entitlement,10276,survey-likert,5,15793,group3,modal,5,Female,37,low,interaction,0.747425803,modal,4.038461538,1.781842387,5.288461538,1.257706261,5.019230769,1.244444669,4.769230769,1.24641265
1,low_entitlement,8460,survey-likert,3,61076,group4,wonder,6,Female,33,low,interaction,1.747425803,embedded modal,4.038461538,1.781842387,5.288461538,1.257706261,5.019230769,1.244444669,4.769230769,1.24641265
1,low_entitlement,13967,survey-likert,10,29160,group2,indirect,4,Male,32,low,interaction,-0.252574197,indirect,4.038461538,1.781842387,5.288461538,1.257706261,5.019230769,1.244444669,4.769230769,1.24641265
1,low_entitlement,25177,survey-likert,11,84163,group1,direct,0,Female,26,low,interaction,-4.252574197,direct,4.038461538,1.781842387,5.288461538,1.257706261,5.019230769,1.244444669,4.769230769,1.24641265
1,low_entitlement,24341,survey-likert,14,25173,group1,direct,5,Male,32,low,interaction,0.747425803,direct,4.038461538,1.781842387,5.288461538,1.257706261,5.019230769,1.244444669,4.769230769,1.24641265
1,low_entitlement,31405,survey-likert,5,84774,group2,indirect,2,Male,51,low,interaction,-2.252574197,indirect,4.038461538,1.781842387,5.288461538,1.257706261,5.019230769,1.244444669,4.769230769,1.24641265
1,low_entitlement,781,survey-likert,6,70111,group4,wonder,4,Female,21,low,interaction,-0.252574197,embedded modal,4.038461538,1.781842387,5.288461538,1.257706261,5.019230769,1.244444669,4.769230769,1.24641265
1,low_entitlement,6877,survey-likert,19,95722,group4,wonder,6,Male,40,low,interaction,1.747425803,embedded modal,4.038461538,1.781842387,5.288461538,1.257706261,5.019230769,1.244444669,4.769230769,1.24641265
1,low_entitlement,5879,survey-likert,16,90363,group1,direct,5,Male,35,low,interaction,0.747425803,direct,4.038461538,1.781842387,5.288461538,1.257706261,5.019230769,1.244444669,4.769230769,1.24641265
1,low_entitlement,20047,survey-likert,14,53235,group1,direct,6,Male,29,low,interaction,1.747425803,direct,4.038461538,1.781842387,5.288461538,1.257706261,5.019230769,1.244444669,4.769230769,1.24641265
1,low_entitlement,18145,survey-likert,8,15587,group4,wonder,5,Male,30,low,interaction,0.747425803,embedded modal,4.038461538,1.781842387,5.288461538,1.257706261,5.019230769,1.244444669,4.769230769,1.24641265
1,low_entitlement,11353,survey-likert,13,38125,group4,wonder,4,Female,33,low,interaction,-0.252574197,embedded modal,4.038461538,1.781842387,5.288461538,1.257706261,5.019230769,1.244444669,4.769230769,1.24641265
1,low_entitlement,6491,survey-likert,18,28767,group1,direct,3,Male,29,low,interaction,-1.252574197,direct,4.038461538,1.781842387,5.288461538,1.257706261,5.019230769,1.244444669,4.769230769,1.24641265
1,low_entitlement,15092,survey-likert,9,18718,group2,indirect,1,Male,39,low,interaction,-3.252574197,indirect,4.038461538,1.781842387,5.288461538,1.257706261,5.019230769,1.244444669,4.769230769,1.24641265
1,low_entitlement,10327,survey-likert,9,67486,group1,direct,3,Male,26,low,interaction,-1.252574197,direct,4.038461538,1.781842387,5.288461538,1.257706261,5.019230769,1.244444669,4.769230769,1.24641265
1,low_entitlement,10115,survey-likert,9,50886,group2,indirect,1,Female,44,low,interaction,-3.252574197,indirect,4.038461538,1.781842387,5.288461538,1.257706261,5.019230769,1.244444669,4.769230769,1.24641265
1,low_entitlement,9127,survey-likert,13,14583,group2,indirect,6,Male,32,low,interaction,1.747425803,indirect,4.038461538,1.781842387,5.288461538,1.257706261,5.019230769,1.244444669,4.769230769,1.24641265
1,low_entitlement,16752,survey-likert,11,46377,group3,modal,6,Female,49,low,interaction,1.747425803,modal,4.038461538,1.781842387,5.288461538,1.257706261,5.019230769,1.244444669,4.769230769,1.24641265
1,low_entitlement,2759,survey-likert,3,33044,group2,indirect,4,Male,22,low,interaction,-0.252574197,indirect,4.038461538,1.781842387,5.288461538,1.257706261,5.019230769,1.244444669,4.769230769,1.24641265
1,low_entitlement,21206,survey-likert,13,55610,group1,direct,2,Male,70,low,interaction,-2.252574197,direct,4.038461538,1.781842387,5.288461538,1.257706261,5.019230769,1.244444669,4.769230769,1.24641265
1,low_entitlement,24058,survey-likert,6,67297,group3,modal,4,Male,32,low,interaction,-0.252574197,modal,4.038461538,1.781842387,5.288461538,1.257706261,5.019230769,1.244444669,4.769230769,1.24641265
1,low_entitlement,2502,survey-likert,5,84778,group3,modal,1,Female,28,low,interaction,-3.252574197,modal,4.038461538,1.781842387,5.288461538,1.257706261,5.019230769,1.244444669,4.769230769,1.24641265
1,low_entitlement,15528,survey-likert,2,2524,group4,wonder,5,Female,34,low,interaction,0.747425803,embedded modal,4.038461538,1.781842387,5.288461538,1.257706261,5.019230769,1.244444669,4.769230769,1.24641265
1,low_entitlement,2848,survey-likert,3,17266,group1,direct,4,Male,26,low,interaction,-0.252574197,direct,4.038461538,1.781842387,5.288461538,1.257706261,5.019230769,1.244444669,4.769230769,1.24641265
1,low_entitlement,21183,survey-likert,10,11221,group1,direct,0,Male,20,low,interaction,-4.252574197,direct,4.038461538,1.781842387,5.288461538,1.257706261,5.019230769,1.244444669,4.769230769,1.24641265
1,low_entitlement,8280,survey-likert,15,15639,group3,modal,6,Male,25,low,interaction,1.747425803,modal,4.038461538,1.781842387,5.288461538,1.257706261,5.019230769,1.244444669,4.769230769,1.24641265
1,low_entitlement,23415,survey-likert,18,86454,group1,direct,3,Male,62,low,interaction,-1.252574197,direct,4.038461538,1.781842387,5.288461538,1.257706261,5.019230769,1.244444669,4.769230769,1.24641265
1,low_entitlement,14543,survey-likert,12,58588,group2,indirect,3,Male,30,low,interaction,-1.252574197,indirect,4.038461538,1.781842387,5.288461538,1.257706261,5.019230769,1.244444669,4.769230769,1.24641265
1,low_entitlement,7331,survey-likert,2,46503,group3,modal,6,Male,31,low,interaction,1.747425803,modal,4.038461538,1.781842387,5.288461538,1.257706261,5.019230769,1.244444669,4.769230769,1.24641265
1,low_entitlement,7538,survey-likert,17,54578,group2,indirect,2,Female,34,low,interaction,-2.252574197,indirect,4.038461538,1.781842387,5.288461538,1.257706261,5.019230769,1.244444669,4.769230769,1.24641265
1,low_entitlement,74998,survey-likert,11,41322,group2,indirect,5,Male,30,low,interaction,0.747425803,indirect,4.038461538,1.781842387,5.288461538,1.257706261,5.019230769,1.244444669,4.769230769,1.24641265
1,low_entitlement,6742,survey-likert,11,47769,group2,indirect,2,Female,41,low,interaction,-2.252574197,indirect,4.038461538,1.781842387,5.288461538,1.257706261,5.019230769,1.244444669,4.769230769,1.24641265
1,low_entitlement,12625,survey-likert,14,54349,group4,wonder,5,Female,27,low,interaction,0.747425803,embedded modal,4.038461538,1.781842387,5.288461538,1.257706261,5.019230769,1.244444669,4.769230769,1.24641265
1,low_entitlement,729,survey-likert,7,27495,group2,indirect,6,Male,22,low,interaction,1.747425803,indirect,4.038461538,1.781842387,5.288461538,1.257706261,5.019230769,1.244444669,4.769230769,1.24641265
1,low_entitlement,7865,survey-likert,18,17737,group1,direct,3,Female,56,low,interaction,-1.252574197,direct,4.038461538,1.781842387,5.288461538,1.257706261,5.019230769,1.244444669,4.769230769,1.24641265
1,low_entitlement,9946,survey-likert,19,44059,group4,wonder,5,Female,32,low,interaction,0.747425803,embedded modal,4.038461538,1.781842387,5.288461538,1.257706261,5.019230769,1.244444669,4.769230769,1.24641265
1,low_entitlement,1912,survey-likert,16,86984,group2,indirect,3,Male,22,low,interaction,-1.252574197,indirect,4.038461538,1.781842387,5.288461538,1.257706261,5.019230769,1.244444669,4.769230769,1.24641265
1,low_entitlement,22696,survey-likert,2,9614,group4,wonder,0,Male,26,low,interaction,-4.252574197,embedded modal,4.038461538,1.781842387,5.288461538,1.257706261,5.019230769,1.244444669,4.769230769,1.24641265
1,low_entitlement,5597,survey-likert,11,42259,group3,modal,5,Male,30,low,interaction,0.747425803,modal,4.038461538,1.781842387,5.288461538,1.257706261,5.019230769,1.244444669,4.769230769,1.24641265
1,low_entitlement,12821,survey-likert,16,38200,group1,direct,3,Male,27,low,interaction,-1.252574197,direct,4.038461538,1.781842387,5.288461538,1.257706261,5.019230769,1.244444669,4.769230769,1.24641265
2,high_entitlement,8751,survey-likert,18,79926,group4,indirect,2,Male,NA,high,interaction,-2.252574197,indirect,5.622641509,1.913780141,4.830188679,1.553356775,4.79245283,1.633289396,5.20754717,1.245893108
2,high_entitlement,5191,survey-likert,19,77794,group3,wonder,5,Female,42,high,interaction,0.747425803,embedded modal,5.622641509,1.913780141,4.830188679,1.553356775,4.79245283,1.633289396,5.20754717,1.245893108
2,high_entitlement,5175,survey-likert,3,20708,group1,modal,5,Female,27,high,interaction,0.747425803,modal,5.622641509,1.913780141,4.830188679,1.553356775,4.79245283,1.633289396,5.20754717,1.245893108
2,high_entitlement,20280,survey-likert,7,73278,group4,indirect,2,Female,59,high,interaction,-2.252574197,indirect,5.622641509,1.913780141,4.830188679,1.553356775,4.79245283,1.633289396,5.20754717,1.245893108
2,high_entitlement,4144,survey-likert,4,90363,group1,modal,6,Male,35,high,interaction,1.747425803,modal,5.622641509,1.913780141,4.830188679,1.553356775,4.79245283,1.633289396,5.20754717,1.245893108
2,high_entitlement,6358,survey-likert,5,47769,group2,direct,2,Female,41,high,interaction,-2.252574197,direct,5.622641509,1.913780141,4.830188679,1.553356775,4.79245283,1.633289396,5.20754717,1.245893108
2,high_entitlement,9270,survey-likert,8,84163,group1,modal,1,Female,26,high,interaction,-3.252574197,modal,5.622641509,1.913780141,4.830188679,1.553356775,4.79245283,1.633289396,5.20754717,1.245893108
2,high_entitlement,11566,survey-likert,10,13081,group4,indirect,5,Female,36,high,interaction,0.747425803,indirect,5.622641509,1.913780141,4.830188679,1.553356775,4.79245283,1.633289396,5.20754717,1.245893108
2,high_entitlement,50822,survey-likert,17,61076,group4,indirect,6,Female,33,high,interaction,1.747425803,indirect,5.622641509,1.913780141,4.830188679,1.553356775,4.79245283,1.633289396,5.20754717,1.245893108
2,high_entitlement,15949,survey-likert,10,55610,group1,modal,6,Male,70,high,interaction,1.747425803,modal,5.622641509,1.913780141,4.830188679,1.553356775,4.79245283,1.633289396,5.20754717,1.245893108
2,high_entitlement,14001,survey-likert,17,84774,group2,direct,1,Male,51,high,interaction,-3.252574197,direct,5.622641509,1.913780141,4.830188679,1.553356775,4.79245283,1.633289396,5.20754717,1.245893108
2,high_entitlement,5256,survey-likert,11,3430,group2,direct,6,Female,23,high,interaction,1.747425803,direct,5.622641509,1.913780141,4.830188679,1.553356775,4.79245283,1.633289396,5.20754717,1.245893108
2,high_entitlement,6378,survey-likert,17,74284,group4,indirect,3,Male,55,high,interaction,-1.252574197,indirect,5.622641509,1.913780141,4.830188679,1.553356775,4.79245283,1.633289396,5.20754717,1.245893108
2,high_entitlement,9709,survey-likert,6,51964,group3,wonder,6,Female,36,high,interaction,1.747425803,embedded modal,5.622641509,1.913780141,4.830188679,1.553356775,4.79245283,1.633289396,5.20754717,1.245893108
2,high_entitlement,2229,survey-likert,18,2654,group3,wonder,3,Male,27,high,interaction,-1.252574197,embedded modal,5.622641509,1.913780141,4.830188679,1.553356775,4.79245283,1.633289396,5.20754717,1.245893108
2,high_entitlement,8866,survey-likert,6,28898,group1,modal,6,Female,60,high,interaction,1.747425803,modal,5.622641509,1.913780141,4.830188679,1.553356775,4.79245283,1.633289396,5.20754717,1.245893108
2,high_entitlement,15014,survey-likert,9,87309,group1,modal,2,Male,50,high,interaction,-2.252574197,modal,5.622641509,1.913780141,4.830188679,1.553356775,4.79245283,1.633289396,5.20754717,1.245893108
2,high_entitlement,7587,survey-likert,2,33044,group2,direct,3,Male,22,high,interaction,-1.252574197,direct,5.622641509,1.913780141,4.830188679,1.553356775,4.79245283,1.633289396,5.20754717,1.245893108
2,high_entitlement,9184,survey-likert,17,49017,group4,indirect,5,Male,35,high,interaction,0.747425803,indirect,5.622641509,1.913780141,4.830188679,1.553356775,4.79245283,1.633289396,5.20754717,1.245893108
2,high_entitlement,7671,survey-likert,11,88735,group3,wonder,2,Male,63,high,interaction,-2.252574197,embedded modal,5.622641509,1.913780141,4.830188679,1.553356775,4.79245283,1.633289396,5.20754717,1.245893108
2,high_entitlement,11668,survey-likert,15,15364,group1,modal,6,Male,26,high,interaction,1.747425803,modal,5.622641509,1.913780141,4.830188679,1.553356775,4.79245283,1.633289396,5.20754717,1.245893108
2,high_entitlement,14156,survey-likert,17,15793,group3,wonder,4,Female,37,high,interaction,-0.252574197,embedded modal,5.622641509,1.913780141,4.830188679,1.553356775,4.79245283,1.633289396,5.20754717,1.245893108
2,high_entitlement,34173,survey-likert,7,41322,group2,direct,2,Male,30,high,interaction,-2.252574197,direct,5.622641509,1.913780141,4.830188679,1.553356775,4.79245283,1.633289396,5.20754717,1.245893108
2,high_entitlement,7839,survey-likert,11,14583,group2,direct,6,Male,32,high,interaction,1.747425803,direct,5.622641509,1.913780141,4.830188679,1.553356775,4.79245283,1.633289396,5.20754717,1.245893108
2,high_entitlement,5976,survey-likert,14,45596,group2,direct,0,Male,34,high,interaction,-4.252574197,direct,5.622641509,1.913780141,4.830188679,1.553356775,4.79245283,1.633289396,5.20754717,1.245893108
2,high_entitlement,10834,survey-likert,15,55429,group4,indirect,6,Female,23,high,interaction,1.747425803,indirect,5.622641509,1.913780141,4.830188679,1.553356775,4.79245283,1.633289396,5.20754717,1.245893108
2,high_entitlement,7019,survey-likert,5,96726,group2,direct,6,Female,24,high,interaction,1.747425803,direct,5.622641509,1.913780141,4.830188679,1.553356775,4.79245283,1.633289396,5.20754717,1.245893108
2,high_entitlement,4531,survey-likert,10,84778,group3,wonder,3,Female,28,high,interaction,-1.252574197,embedded modal,5.622641509,1.913780141,4.830188679,1.553356775,4.79245283,1.633289396,5.20754717,1.245893108
2,high_entitlement,13184,survey-likert,17,29160,group2,direct,4,Male,32,high,interaction,-0.252574197,direct,5.622641509,1.913780141,4.830188679,1.553356775,4.79245283,1.633289396,5.20754717,1.245893108
2,high_entitlement,10015,survey-likert,14,50739,group4,indirect,3,Female,38,high,interaction,-1.252574197,indirect,5.622641509,1.913780141,4.830188679,1.553356775,4.79245283,1.633289396,5.20754717,1.245893108
2,high_entitlement,5483,survey-likert,13,75477,group1,modal,4,Male,25,high,interaction,-0.252574197,modal,5.622641509,1.913780141,4.830188679,1.553356775,4.79245283,1.633289396,5.20754717,1.245893108
2,high_entitlement,1111,survey-likert,7,83487,group3,wonder,4,Female,28,high,interaction,-0.252574197,embedded modal,5.622641509,1.913780141,4.830188679,1.553356775,4.79245283,1.633289396,5.20754717,1.245893108
2,high_entitlement,9395,survey-likert,6,92110,group3,wonder,5,Female,39,high,interaction,0.747425803,embedded modal,5.622641509,1.913780141,4.830188679,1.553356775,4.79245283,1.633289396,5.20754717,1.245893108
2,high_entitlement,2117,survey-likert,15,98850,group1,modal,3,Male,33,high,interaction,-1.252574197,modal,5.622641509,1.913780141,4.830188679,1.553356775,4.79245283,1.633289396,5.20754717,1.245893108
2,high_entitlement,15508,survey-likert,5,18718,group2,direct,4,Male,39,high,interaction,-0.252574197,direct,5.622641509,1.913780141,4.830188679,1.553356775,4.79245283,1.633289396,5.20754717,1.245893108
2,high_entitlement,87611,survey-likert,17,92792,group3,wonder,6,Male,30,high,interaction,1.747425803,embedded modal,5.622641509,1.913780141,4.830188679,1.553356775,4.79245283,1.633289396,5.20754717,1.245893108
2,high_entitlement,98991,survey-likert,11,65042,group2,direct,4,Male,31,high,interaction,-0.252574197,direct,5.622641509,1.913780141,4.830188679,1.553356775,4.79245283,1.633289396,5.20754717,1.245893108
2,high_entitlement,9718,survey-likert,19,16019,group4,indirect,6,Female,34,high,interaction,1.747425803,indirect,5.622641509,1.913780141,4.830188679,1.553356775,4.79245283,1.633289396,5.20754717,1.245893108
2,high_entitlement,3739,survey-likert,12,42259,group3,wonder,6,Male,30,high,interaction,1.747425803,embedded modal,5.622641509,1.913780141,4.830188679,1.553356775,4.79245283,1.633289396,5.20754717,1.245893108
2,high_entitlement,45621,survey-likert,12,61656,group1,modal,6,Male,27,high,interaction,1.747425803,modal,5.622641509,1.913780141,4.830188679,1.553356775,4.79245283,1.633289396,5.20754717,1.245893108
2,high_entitlement,3332,survey-likert,18,29579,group1,modal,5,Male,28,high,interaction,0.747425803,modal,5.622641509,1.913780141,4.830188679,1.553356775,4.79245283,1.633289396,5.20754717,1.245893108
2,high_entitlement,3197,survey-likert,9,81953,group4,indirect,5,Female,42,high,interaction,0.747425803,indirect,5.622641509,1.913780141,4.830188679,1.553356775,4.79245283,1.633289396,5.20754717,1.245893108
2,high_entitlement,7425,survey-likert,9,21733,group4,indirect,6,Male,24,high,interaction,1.747425803,indirect,5.622641509,1.913780141,4.830188679,1.553356775,4.79245283,1.633289396,5.20754717,1.245893108
2,high_entitlement,13729,survey-likert,11,67329,group3,wonder,5,Female,28,high,interaction,0.747425803,embedded modal,5.622641509,1.913780141,4.830188679,1.553356775,4.79245283,1.633289396,5.20754717,1.245893108
2,high_entitlement,15760,survey-likert,4,9614,group4,indirect,5,Male,26,high,interaction,0.747425803,indirect,5.622641509,1.913780141,4.830188679,1.553356775,4.79245283,1.633289396,5.20754717,1.245893108
2,high_entitlement,10225,survey-likert,18,58588,group2,direct,3,Male,30,high,interaction,-1.252574197,direct,5.622641509,1.913780141,4.830188679,1.553356775,4.79245283,1.633289396,5.20754717,1.245893108
2,high_entitlement,3589,survey-likert,19,77109,group4,indirect,2,Female,39,high,interaction,-2.252574197,indirect,5.622641509,1.913780141,4.830188679,1.553356775,4.79245283,1.633289396,5.20754717,1.245893108
2,high_entitlement,20286,survey-likert,2,38200,group1,modal,2,Male,27,high,interaction,-2.252574197,modal,5.622641509,1.913780141,4.830188679,1.553356775,4.79245283,1.633289396,5.20754717,1.245893108
2,high_entitlement,3316,survey-likert,17,87176,group1,modal,4,Male,31,high,interaction,-0.252574197,modal,5.622641509,1.913780141,4.830188679,1.553356775,4.79245283,1.633289396,5.20754717,1.245893108
2,high_entitlement,3620,survey-likert,19,67486,group1,modal,6,Male,26,high,interaction,1.747425803,modal,5.622641509,1.913780141,4.830188679,1.553356775,4.79245283,1.633289396,5.20754717,1.245893108
2,high_entitlement,9624,survey-likert,10,19384,group2,direct,5,Male,33,high,interaction,0.747425803,direct,5.622641509,1.913780141,4.830188679,1.553356775,4.79245283,1.633289396,5.20754717,1.245893108
2,high_entitlement,11334,survey-likert,6,68260,group1,modal,6,Female,37,high,interaction,1.747425803,modal,5.622641509,1.913780141,4.830188679,1.553356775,4.79245283,1.633289396,5.20754717,1.245893108
2,high_entitlement,6172,survey-likert,13,16115,group2,direct,1,Male,34,high,interaction,-3.252574197,direct,5.622641509,1.913780141,4.830188679,1.553356775,4.79245283,1.633289396,5.20754717,1.245893108
2,high_entitlement,12540,survey-likert,5,62400,group4,indirect,5,Male,24,high,interaction,0.747425803,indirect,5.622641509,1.913780141,4.830188679,1.553356775,4.79245283,1.633289396,5.20754717,1.245893108
2,high_entitlement,2714,survey-likert,3,70111,group4,indirect,5,Female,21,high,interaction,0.747425803,indirect,5.622641509,1.913780141,4.830188679,1.553356775,4.79245283,1.633289396,5.20754717,1.245893108
2,high_entitlement,5077,survey-likert,3,57291,group4,indirect,0,Male,23,high,interaction,-4.252574197,indirect,5.622641509,1.913780141,4.830188679,1.553356775,4.79245283,1.633289396,5.20754717,1.245893108
2,high_entitlement,10760,survey-likert,14,83017,group1,modal,5,Male,43,high,interaction,0.747425803,modal,5.622641509,1.913780141,4.830188679,1.553356775,4.79245283,1.633289396,5.20754717,1.245893108
2,high_entitlement,2894,survey-likert,18,27495,group2,direct,6,Male,22,high,interaction,1.747425803,direct,5.622641509,1.913780141,4.830188679,1.553356775,4.79245283,1.633289396,5.20754717,1.245893108
2,high_entitlement,3640,survey-likert,14,15639,group3,wonder,6,Male,25,high,interaction,1.747425803,embedded modal,5.622641509,1.913780141,4.830188679,1.553356775,4.79245283,1.633289396,5.20754717,1.245893108
2,high_entitlement,9012,survey-likert,16,92254,group3,wonder,6,Male,54,high,interaction,1.747425803,embedded modal,5.622641509,1.913780141,4.830188679,1.553356775,4.79245283,1.633289396,5.20754717,1.245893108
2,high_entitlement,6519,survey-likert,10,17737,group1,modal,6,Female,56,high,interaction,1.747425803,modal,5.622641509,1.913780141,4.830188679,1.553356775,4.79245283,1.633289396,5.20754717,1.245893108
2,high_entitlement,8751,survey-likert,8,23900,group2,direct,4,Male,27,high,interaction,-0.252574197,direct,5.622641509,1.913780141,4.830188679,1.553356775,4.79245283,1.633289396,5.20754717,1.245893108
2,high_entitlement,8312,survey-likert,12,54349,group4,indirect,4,Female,27,high,interaction,-0.252574197,indirect,5.622641509,1.913780141,4.830188679,1.553356775,4.79245283,1.633289396,5.20754717,1.245893108
2,high_entitlement,7491,survey-likert,7,46377,group3,wonder,6,Female,49,high,interaction,1.747425803,embedded modal,5.622641509,1.913780141,4.830188679,1.553356775,4.79245283,1.633289396,5.20754717,1.245893108
2,high_entitlement,7383,survey-likert,7,24477,group3,wonder,5,Male,55,high,interaction,0.747425803,embedded modal,5.622641509,1.913780141,4.830188679,1.553356775,4.79245283,1.633289396,5.20754717,1.245893108
2,high_entitlement,14317,survey-likert,12,65327,group2,direct,4,Female,47,high,interaction,-0.252574197,direct,5.622641509,1.913780141,4.830188679,1.553356775,4.79245283,1.633289396,5.20754717,1.245893108
2,high_entitlement,18503,survey-likert,15,53072,group2,direct,2,Male,26,high,interaction,-2.252574197,direct,5.622641509,1.913780141,4.830188679,1.553356775,4.79245283,1.633289396,5.20754717,1.245893108
2,high_entitlement,10822,survey-likert,7,22339,group4,indirect,3,Male,45,high,interaction,-1.252574197,indirect,5.622641509,1.913780141,4.830188679,1.553356775,4.79245283,1.633289396,5.20754717,1.245893108
2,high_entitlement,15525,survey-likert,3,66747,group1,modal,5,Male,23,high,interaction,0.747425803,modal,5.622641509,1.913780141,4.830188679,1.553356775,4.79245283,1.633289396,5.20754717,1.245893108
2,high_entitlement,28717,survey-likert,3,74693,group2,direct,5,Male,39,high,interaction,0.747425803,direct,5.622641509,1.913780141,4.830188679,1.553356775,4.79245283,1.633289396,5.20754717,1.245893108
2,high_entitlement,8153,survey-likert,7,38125,group4,indirect,2,Female,33,high,interaction,-2.252574197,indirect,5.622641509,1.913780141,4.830188679,1.553356775,4.79245283,1.633289396,5.20754717,1.245893108
2,high_entitlement,5001,survey-likert,3,46503,group3,wonder,4,Male,31,high,interaction,-0.252574197,embedded modal,5.622641509,1.913780141,4.830188679,1.553356775,4.79245283,1.633289396,5.20754717,1.245893108
2,high_entitlement,4157,survey-likert,17,58581,group2,direct,6,Female,27,high,interaction,1.747425803,direct,5.622641509,1.913780141,4.830188679,1.553356775,4.79245283,1.633289396,5.20754717,1.245893108
2,high_entitlement,11684,survey-likert,3,28767,group1,modal,6,Male,29,high,interaction,1.747425803,modal,5.622641509,1.913780141,4.830188679,1.553356775,4.79245283,1.633289396,5.20754717,1.245893108
2,high_entitlement,11111,survey-likert,2,11221,group1,modal,6,Male,20,high,interaction,1.747425803,modal,5.622641509,1.913780141,4.830188679,1.553356775,4.79245283,1.633289396,5.20754717,1.245893108
2,high_entitlement,7750,survey-likert,8,70202,group2,direct,5,Male,23,high,interaction,0.747425803,direct,5.622641509,1.913780141,4.830188679,1.553356775,4.79245283,1.633289396,5.20754717,1.245893108
2,high_entitlement,11534,survey-likert,14,71909,group4,indirect,4,Male,23,high,interaction,-0.252574197,indirect,5.622641509,1.913780141,4.830188679,1.553356775,4.79245283,1.633289396,5.20754717,1.245893108
2,high_entitlement,11192,survey-likert,7,50886,group2,direct,2,Female,44,high,interaction,-2.252574197,direct,5.622641509,1.913780141,4.830188679,1.553356775,4.79245283,1.633289396,5.20754717,1.245893108
2,high_entitlement,1458,survey-likert,18,72005,group2,direct,6,Male,24,high,interaction,1.747425803,direct,5.622641509,1.913780141,4.830188679,1.553356775,4.79245283,1.633289396,5.20754717,1.245893108
2,high_entitlement,2333,survey-likert,7,70835,group3,wonder,5,Male,27,high,interaction,0.747425803,embedded modal,5.622641509,1.913780141,4.830188679,1.553356775,4.79245283,1.633289396,5.20754717,1.245893108
2,high_entitlement,2945,survey-likert,18,15587,group4,indirect,3,Male,30,high,interaction,-1.252574197,indirect,5.622641509,1.913780141,4.830188679,1.553356775,4.79245283,1.633289396,5.20754717,1.245893108
2,high_entitlement,5219,survey-likert,14,65469,group1,modal,6,Female,24,high,interaction,1.747425803,modal,5.622641509,1.913780141,4.830188679,1.553356775,4.79245283,1.633289396,5.20754717,1.245893108
2,high_entitlement,10609,survey-likert,4,97825,group4,indirect,4,Male,30,high,interaction,-0.252574197,indirect,5.622641509,1.913780141,4.830188679,1.553356775,4.79245283,1.633289396,5.20754717,1.245893108
2,high_entitlement,4569,survey-likert,13,54578,group2,direct,5,Female,34,high,interaction,0.747425803,direct,5.622641509,1.913780141,4.830188679,1.553356775,4.79245283,1.633289396,5.20754717,1.245893108
2,high_entitlement,10235,survey-likert,14,2524,group4,indirect,3,Female,34,high,interaction,-1.252574197,indirect,5.622641509,1.913780141,4.830188679,1.553356775,4.79245283,1.633289396,5.20754717,1.245893108
2,high_entitlement,4178,survey-likert,10,86984,group2,direct,1,Male,22,high,interaction,-3.252574197,direct,5.622641509,1.913780141,4.830188679,1.553356775,4.79245283,1.633289396,5.20754717,1.245893108
2,high_entitlement,2489,survey-likert,15,64705,group2,direct,5,Male,36,high,interaction,0.747425803,direct,5.622641509,1.913780141,4.830188679,1.553356775,4.79245283,1.633289396,5.20754717,1.245893108
2,high_entitlement,10720,survey-likert,11,44059,group4,indirect,0,Female,32,high,interaction,-4.252574197,indirect,5.622641509,1.913780141,4.830188679,1.553356775,4.79245283,1.633289396,5.20754717,1.245893108
2,high_entitlement,16381,survey-likert,18,16731,group3,wonder,1,Male,26,high,interaction,-3.252574197,embedded modal,5.622641509,1.913780141,4.830188679,1.553356775,4.79245283,1.633289396,5.20754717,1.245893108
2,high_entitlement,9682,survey-likert,5,45082,group3,wonder,5,Female,51,high,interaction,0.747425803,embedded modal,5.622641509,1.913780141,4.830188679,1.553356775,4.79245283,1.633289396,5.20754717,1.245893108
2,high_entitlement,7758,survey-likert,4,1536,group2,direct,5,Male,34,high,interaction,0.747425803,direct,5.622641509,1.913780141,4.830188679,1.553356775,4.79245283,1.633289396,5.20754717,1.245893108
2,high_entitlement,17704,survey-likert,17,1147,group2,direct,3,Male,20,high,interaction,-1.252574197,direct,5.622641509,1.913780141,4.830188679,1.553356775,4.79245283,1.633289396,5.20754717,1.245893108
2,high_entitlement,4571,survey-likert,14,5100,group3,wonder,5,Male,45,high,interaction,0.747425803,embedded modal,5.622641509,1.913780141,4.830188679,1.553356775,4.79245283,1.633289396,5.20754717,1.245893108
2,high_entitlement,5158,survey-likert,10,53320,group1,modal,5,Female,33,high,interaction,0.747425803,modal,5.622641509,1.913780141,4.830188679,1.553356775,4.79245283,1.633289396,5.20754717,1.245893108
2,high_entitlement,12369,survey-likert,7,25173,group1,modal,6,Male,32,high,interaction,1.747425803,modal,5.622641509,1.913780141,4.830188679,1.553356775,4.79245283,1.633289396,5.20754717,1.245893108
2,high_entitlement,10646,survey-likert,10,86454,group1,modal,6,Male,62,high,interaction,1.747425803,modal,5.622641509,1.913780141,4.830188679,1.553356775,4.79245283,1.633289396,5.20754717,1.245893108
2,high_entitlement,1603,survey-likert,15,17266,group1,modal,6,Male,26,high,interaction,1.747425803,modal,5.622641509,1.913780141,4.830188679,1.553356775,4.79245283,1.633289396,5.20754717,1.245893108
2,high_entitlement,2899,survey-likert,12,98554,group1,modal,5,Male,36,high,interaction,0.747425803,modal,5.622641509,1.913780141,4.830188679,1.553356775,4.79245283,1.633289396,5.20754717,1.245893108
2,high_entitlement,16264,survey-likert,12,53235,group1,modal,6,Male,29,high,interaction,1.747425803,modal,5.622641509,1.913780141,4.830188679,1.553356775,4.79245283,1.633289396,5.20754717,1.245893108
2,high_entitlement,11067,survey-likert,17,67297,group3,wonder,5,Male,32,high,interaction,0.747425803,embedded modal,5.622641509,1.913780141,4.830188679,1.553356775,4.79245283,1.633289396,5.20754717,1.245893108
2,high_entitlement,5580,survey-likert,16,25948,group3,wonder,4,Male,41,high,interaction,-0.252574197,embedded modal,5.622641509,1.913780141,4.830188679,1.553356775,4.79245283,1.633289396,5.20754717,1.245893108
2,high_entitlement,9439,survey-likert,19,63264,group3,wonder,6,Female,28,high,interaction,1.747425803,embedded modal,5.622641509,1.913780141,4.830188679,1.553356775,4.79245283,1.633289396,5.20754717,1.245893108
2,low_entitlement,9679,survey-likert,13,13081,group4,indirect,5,Female,36,low,interaction,0.747425803,indirect,3.0625,2.025436648,5.9375,1.060033119,5.604166667,1.425297033,4.708333333,1.270924163
2,low_entitlement,12815,survey-likert,4,87309,group1,modal,4,Male,50,low,interaction,-0.252574197,modal,3.0625,2.025436648,5.9375,1.060033119,5.604166667,1.425297033,4.708333333,1.270924163
2,low_entitlement,17990,survey-likert,5,51964,group3,wonder,6,Female,36,low,interaction,1.747425803,embedded modal,3.0625,2.025436648,5.9375,1.060033119,5.604166667,1.425297033,4.708333333,1.270924163
2,low_entitlement,18140,survey-likert,15,55610,group1,modal,5,Male,70,low,interaction,0.747425803,modal,3.0625,2.025436648,5.9375,1.060033119,5.604166667,1.425297033,4.708333333,1.270924163
2,low_entitlement,11796,survey-likert,3,11221,group1,modal,4,Male,20,low,interaction,-0.252574197,modal,3.0625,2.025436648,5.9375,1.060033119,5.604166667,1.425297033,4.708333333,1.270924163
2,low_entitlement,7954,survey-likert,13,73278,group4,indirect,0,Female,59,low,interaction,-4.252574197,indirect,3.0625,2.025436648,5.9375,1.060033119,5.604166667,1.425297033,4.708333333,1.270924163
2,low_entitlement,9085,survey-likert,3,88735,group3,wonder,3,Male,63,low,interaction,-1.252574197,embedded modal,3.0625,2.025436648,5.9375,1.060033119,5.604166667,1.425297033,4.708333333,1.270924163
2,low_entitlement,7284,survey-likert,17,25173,group1,modal,3,Male,32,low,interaction,-1.252574197,modal,3.0625,2.025436648,5.9375,1.060033119,5.604166667,1.425297033,4.708333333,1.270924163
2,low_entitlement,17815,survey-likert,13,15364,group1,modal,3,Male,26,low,interaction,-1.252574197,modal,3.0625,2.025436648,5.9375,1.060033119,5.604166667,1.425297033,4.708333333,1.270924163
2,low_entitlement,19083,survey-likert,3,14583,group2,direct,6,Male,32,low,interaction,1.747425803,direct,3.0625,2.025436648,5.9375,1.060033119,5.604166667,1.425297033,4.708333333,1.270924163
2,low_entitlement,14428,survey-likert,17,63264,group3,wonder,0,Female,28,low,interaction,-4.252574197,embedded modal,3.0625,2.025436648,5.9375,1.060033119,5.604166667,1.425297033,4.708333333,1.270924163
2,low_entitlement,8636,survey-likert,8,22339,group4,indirect,3,Male,45,low,interaction,-1.252574197,indirect,3.0625,2.025436648,5.9375,1.060033119,5.604166667,1.425297033,4.708333333,1.270924163
2,low_entitlement,32632,survey-likert,6,41322,group2,direct,5,Male,30,low,interaction,0.747425803,direct,3.0625,2.025436648,5.9375,1.060033119,5.604166667,1.425297033,4.708333333,1.270924163
2,low_entitlement,11209,survey-likert,4,96726,group2,direct,6,Female,24,low,interaction,1.747425803,direct,3.0625,2.025436648,5.9375,1.060033119,5.604166667,1.425297033,4.708333333,1.270924163
2,low_entitlement,7656,survey-likert,11,45596,group2,direct,1,Male,34,low,interaction,-3.252574197,direct,3.0625,2.025436648,5.9375,1.060033119,5.604166667,1.425297033,4.708333333,1.270924163
2,low_entitlement,3709,survey-likert,7,1536,group2,direct,5,Male,34,low,interaction,0.747425803,direct,3.0625,2.025436648,5.9375,1.060033119,5.604166667,1.425297033,4.708333333,1.270924163
2,low_entitlement,30207,survey-likert,11,61076,group4,indirect,3,Female,33,low,interaction,-1.252574197,indirect,3.0625,2.025436648,5.9375,1.060033119,5.604166667,1.425297033,4.708333333,1.270924163
2,low_entitlement,11139,survey-likert,5,46377,group3,wonder,5,Female,49,low,interaction,0.747425803,embedded modal,3.0625,2.025436648,5.9375,1.060033119,5.604166667,1.425297033,4.708333333,1.270924163
2,low_entitlement,13311,survey-likert,5,77794,group3,wonder,4,Female,42,low,interaction,-0.252574197,embedded modal,3.0625,2.025436648,5.9375,1.060033119,5.604166667,1.425297033,4.708333333,1.270924163
2,low_entitlement,4882,survey-likert,15,84163,group1,modal,3,Female,26,low,interaction,-1.252574197,modal,3.0625,2.025436648,5.9375,1.060033119,5.604166667,1.425297033,4.708333333,1.270924163
2,low_entitlement,17471,survey-likert,5,42259,group3,wonder,5,Male,30,low,interaction,0.747425803,embedded modal,3.0625,2.025436648,5.9375,1.060033119,5.604166667,1.425297033,4.708333333,1.270924163
2,low_entitlement,864,survey-likert,17,70111,group4,indirect,6,Female,21,low,interaction,1.747425803,indirect,3.0625,2.025436648,5.9375,1.060033119,5.604166667,1.425297033,4.708333333,1.270924163
2,low_entitlement,6677,survey-likert,17,16115,group2,direct,3,Male,34,low,interaction,-1.252574197,direct,3.0625,2.025436648,5.9375,1.060033119,5.604166667,1.425297033,4.708333333,1.270924163
2,low_entitlement,16017,survey-likert,4,74284,group4,indirect,3,Male,55,low,interaction,-1.252574197,indirect,3.0625,2.025436648,5.9375,1.060033119,5.604166667,1.425297033,4.708333333,1.270924163
2,low_entitlement,5883,survey-likert,15,21733,group4,indirect,5,Male,24,low,interaction,0.747425803,indirect,3.0625,2.025436648,5.9375,1.060033119,5.604166667,1.425297033,4.708333333,1.270924163
2,low_entitlement,13588,survey-likert,8,97825,group4,indirect,0,Male,30,low,interaction,-4.252574197,indirect,3.0625,2.025436648,5.9375,1.060033119,5.604166667,1.425297033,4.708333333,1.270924163
2,low_entitlement,24837,survey-likert,8,50739,group4,indirect,1,Female,38,low,interaction,-3.252574197,indirect,3.0625,2.025436648,5.9375,1.060033119,5.604166667,1.425297033,4.708333333,1.270924163
2,low_entitlement,3555,survey-likert,5,9614,group4,indirect,5,Male,26,low,interaction,0.747425803,indirect,3.0625,2.025436648,5.9375,1.060033119,5.604166667,1.425297033,4.708333333,1.270924163
2,low_entitlement,9841,survey-likert,5,58588,group2,direct,5,Male,30,low,interaction,0.747425803,direct,3.0625,2.025436648,5.9375,1.060033119,5.604166667,1.425297033,4.708333333,1.270924163
2,low_entitlement,6832,survey-likert,4,77109,group4,indirect,1,Female,39,low,interaction,-3.252574197,indirect,3.0625,2.025436648,5.9375,1.060033119,5.604166667,1.425297033,4.708333333,1.270924163
2,low_entitlement,1848,survey-likert,14,83487,group3,wonder,3,Female,28,low,interaction,-1.252574197,embedded modal,3.0625,2.025436648,5.9375,1.060033119,5.604166667,1.425297033,4.708333333,1.270924163
2,low_entitlement,9371,survey-likert,3,2524,group4,indirect,2,Female,34,low,interaction,-2.252574197,indirect,3.0625,2.025436648,5.9375,1.060033119,5.604166667,1.425297033,4.708333333,1.270924163
2,low_entitlement,9179,survey-likert,3,61656,group1,modal,3,Male,27,low,interaction,-1.252574197,modal,3.0625,2.025436648,5.9375,1.060033119,5.604166667,1.425297033,4.708333333,1.270924163
2,low_entitlement,5518,survey-likert,8,65469,group1,modal,5,Female,24,low,interaction,0.747425803,modal,3.0625,2.025436648,5.9375,1.060033119,5.604166667,1.425297033,4.708333333,1.270924163
2,low_entitlement,11020,survey-likert,6,79926,group4,indirect,1,Male,NA,low,interaction,-3.252574197,indirect,3.0625,2.025436648,5.9375,1.060033119,5.604166667,1.425297033,4.708333333,1.270924163
2,low_entitlement,64496,survey-likert,13,84774,group2,direct,0,Male,51,low,interaction,-4.252574197,direct,3.0625,2.025436648,5.9375,1.060033119,5.604166667,1.425297033,4.708333333,1.270924163
2,low_entitlement,10550,survey-likert,19,62400,group4,indirect,4,Male,24,low,interaction,-0.252574197,indirect,3.0625,2.025436648,5.9375,1.060033119,5.604166667,1.425297033,4.708333333,1.270924163
2,low_entitlement,4044,survey-likert,12,44059,group4,indirect,0,Female,32,low,interaction,-4.252574197,indirect,3.0625,2.025436648,5.9375,1.060033119,5.604166667,1.425297033,4.708333333,1.270924163
2,low_entitlement,4284,survey-likert,19,81953,group4,indirect,3,Female,42,low,interaction,-1.252574197,indirect,3.0625,2.025436648,5.9375,1.060033119,5.604166667,1.425297033,4.708333333,1.270924163
2,low_entitlement,2240,survey-likert,5,1147,group2,direct,3,Male,20,low,interaction,-1.252574197,direct,3.0625,2.025436648,5.9375,1.060033119,5.604166667,1.425297033,4.708333333,1.270924163
2,low_entitlement,643,survey-likert,9,27495,group2,direct,6,Male,22,low,interaction,1.747425803,direct,3.0625,2.025436648,5.9375,1.060033119,5.604166667,1.425297033,4.708333333,1.270924163
2,low_entitlement,3030,survey-likert,16,98554,group1,modal,5,Male,36,low,interaction,0.747425803,modal,3.0625,2.025436648,5.9375,1.060033119,5.604166667,1.425297033,4.708333333,1.270924163
2,low_entitlement,8868,survey-likert,16,67329,group3,wonder,5,Female,28,low,interaction,0.747425803,embedded modal,3.0625,2.025436648,5.9375,1.060033119,5.604166667,1.425297033,4.708333333,1.270924163
2,low_entitlement,4844,survey-likert,15,87176,group1,modal,5,Male,31,low,interaction,0.747425803,modal,3.0625,2.025436648,5.9375,1.060033119,5.604166667,1.425297033,4.708333333,1.270924163
2,low_entitlement,6625,survey-likert,11,29160,group2,direct,4,Male,32,low,interaction,-0.252574197,direct,3.0625,2.025436648,5.9375,1.060033119,5.604166667,1.425297033,4.708333333,1.270924163
2,low_entitlement,8419,survey-likert,5,55429,group4,indirect,6,Female,23,low,interaction,1.747425803,indirect,3.0625,2.025436648,5.9375,1.060033119,5.604166667,1.425297033,4.708333333,1.270924163
2,low_entitlement,11285,survey-likert,11,65327,group2,direct,6,Female,47,low,interaction,1.747425803,direct,3.0625,2.025436648,5.9375,1.060033119,5.604166667,1.425297033,4.708333333,1.270924163
2,low_entitlement,9310,survey-likert,8,2654,group3,wonder,2,Male,27,low,interaction,-2.252574197,embedded modal,3.0625,2.025436648,5.9375,1.060033119,5.604166667,1.425297033,4.708333333,1.270924163
2,low_entitlement,21757,survey-likert,9,68260,group1,modal,2,Female,37,low,interaction,-2.252574197,modal,3.0625,2.025436648,5.9375,1.060033119,5.604166667,1.425297033,4.708333333,1.270924163
2,low_entitlement,7439,survey-likert,18,53072,group2,direct,0,Male,26,low,interaction,-4.252574197,direct,3.0625,2.025436648,5.9375,1.060033119,5.604166667,1.425297033,4.708333333,1.270924163
2,low_entitlement,6692,survey-likert,17,25948,group3,wonder,4,Male,41,low,interaction,-0.252574197,embedded modal,3.0625,2.025436648,5.9375,1.060033119,5.604166667,1.425297033,4.708333333,1.270924163
2,low_entitlement,16006,survey-likert,2,16731,group3,wonder,4,Male,26,low,interaction,-0.252574197,embedded modal,3.0625,2.025436648,5.9375,1.060033119,5.604166667,1.425297033,4.708333333,1.270924163
2,low_entitlement,6843,survey-likert,3,58581,group2,direct,5,Female,27,low,interaction,0.747425803,direct,3.0625,2.025436648,5.9375,1.060033119,5.604166667,1.425297033,4.708333333,1.270924163
2,low_entitlement,8864,survey-likert,13,83017,group1,modal,6,Male,43,low,interaction,1.747425803,modal,3.0625,2.025436648,5.9375,1.060033119,5.604166667,1.425297033,4.708333333,1.270924163
2,low_entitlement,7088,survey-likert,4,54349,group4,indirect,2,Female,27,low,interaction,-2.252574197,indirect,3.0625,2.025436648,5.9375,1.060033119,5.604166667,1.425297033,4.708333333,1.270924163
2,low_entitlement,1754,survey-likert,6,98850,group1,modal,4,Male,33,low,interaction,-0.252574197,modal,3.0625,2.025436648,5.9375,1.060033119,5.604166667,1.425297033,4.708333333,1.270924163
2,low_entitlement,8798,survey-likert,7,23900,group2,direct,4,Male,27,low,interaction,-0.252574197,direct,3.0625,2.025436648,5.9375,1.060033119,5.604166667,1.425297033,4.708333333,1.270924163
2,low_entitlement,9182,survey-likert,15,50886,group2,direct,0,Female,44,low,interaction,-4.252574197,direct,3.0625,2.025436648,5.9375,1.060033119,5.604166667,1.425297033,4.708333333,1.270924163
2,low_entitlement,9495,survey-likert,4,67486,group1,modal,6,Male,26,low,interaction,1.747425803,modal,3.0625,2.025436648,5.9375,1.060033119,5.604166667,1.425297033,4.708333333,1.270924163
2,low_entitlement,26099,survey-likert,2,24477,group3,wonder,5,Male,55,low,interaction,0.747425803,embedded modal,3.0625,2.025436648,5.9375,1.060033119,5.604166667,1.425297033,4.708333333,1.270924163
2,low_entitlement,3925,survey-likert,14,29579,group1,modal,5,Male,28,low,interaction,0.747425803,modal,3.0625,2.025436648,5.9375,1.060033119,5.604166667,1.425297033,4.708333333,1.270924163
2,low_entitlement,11266,survey-likert,2,16019,group4,indirect,6,Female,34,low,interaction,1.747425803,indirect,3.0625,2.025436648,5.9375,1.060033119,5.604166667,1.425297033,4.708333333,1.270924163
2,low_entitlement,7861,survey-likert,14,19384,group2,direct,1,Male,33,low,interaction,-3.252574197,direct,3.0625,2.025436648,5.9375,1.060033119,5.604166667,1.425297033,4.708333333,1.270924163
2,low_entitlement,3699,survey-likert,10,46503,group3,wonder,4,Male,31,low,interaction,-0.252574197,embedded modal,3.0625,2.025436648,5.9375,1.060033119,5.604166667,1.425297033,4.708333333,1.270924163
2,low_entitlement,3854,survey-likert,18,3430,group2,direct,3,Female,23,low,interaction,-1.252574197,direct,3.0625,2.025436648,5.9375,1.060033119,5.604166667,1.425297033,4.708333333,1.270924163
2,low_entitlement,38921,survey-likert,7,70202,group2,direct,1,Male,23,low,interaction,-3.252574197,direct,3.0625,2.025436648,5.9375,1.060033119,5.604166667,1.425297033,4.708333333,1.270924163
2,low_entitlement,11529,survey-likert,2,53235,group1,modal,6,Male,29,low,interaction,1.747425803,modal,3.0625,2.025436648,5.9375,1.060033119,5.604166667,1.425297033,4.708333333,1.270924163
2,low_entitlement,2246,survey-likert,4,64705,group2,direct,5,Male,36,low,interaction,0.747425803,direct,3.0625,2.025436648,5.9375,1.060033119,5.604166667,1.425297033,4.708333333,1.270924163
2,low_entitlement,6245,survey-likert,11,54578,group2,direct,1,Female,34,low,interaction,-3.252574197,direct,3.0625,2.025436648,5.9375,1.060033119,5.604166667,1.425297033,4.708333333,1.270924163
2,low_entitlement,13797,survey-likert,19,67297,group3,wonder,2,Male,32,low,interaction,-2.252574197,embedded modal,3.0625,2.025436648,5.9375,1.060033119,5.604166667,1.425297033,4.708333333,1.270924163
2,low_entitlement,19458,survey-likert,3,38200,group1,modal,1,Male,27,low,interaction,-3.252574197,modal,3.0625,2.025436648,5.9375,1.060033119,5.604166667,1.425297033,4.708333333,1.270924163
2,low_entitlement,9732,survey-likert,13,15793,group3,wonder,4,Female,37,low,interaction,-0.252574197,embedded modal,3.0625,2.025436648,5.9375,1.060033119,5.604166667,1.425297033,4.708333333,1.270924163
2,low_entitlement,16210,survey-likert,13,92792,group3,wonder,6,Male,30,low,interaction,1.747425803,embedded modal,3.0625,2.025436648,5.9375,1.060033119,5.604166667,1.425297033,4.708333333,1.270924163
2,low_entitlement,2793,survey-likert,8,72005,group2,direct,6,Male,24,low,interaction,1.747425803,direct,3.0625,2.025436648,5.9375,1.060033119,5.604166667,1.425297033,4.708333333,1.270924163
2,low_entitlement,3670,survey-likert,14,33044,group2,direct,4,Male,22,low,interaction,-0.252574197,direct,3.0625,2.025436648,5.9375,1.060033119,5.604166667,1.425297033,4.708333333,1.270924163
2,low_entitlement,21404,survey-likert,2,95722,group4,indirect,4,Male,40,low,interaction,-0.252574197,indirect,3.0625,2.025436648,5.9375,1.060033119,5.604166667,1.425297033,4.708333333,1.270924163
2,low_entitlement,8318,survey-likert,16,57291,group4,indirect,0,Male,23,low,interaction,-4.252574197,indirect,3.0625,2.025436648,5.9375,1.060033119,5.604166667,1.425297033,4.708333333,1.270924163
2,low_entitlement,2644,survey-likert,3,84778,group3,wonder,2,Female,28,low,interaction,-2.252574197,embedded modal,3.0625,2.025436648,5.9375,1.060033119,5.604166667,1.425297033,4.708333333,1.270924163
2,low_entitlement,9151,survey-likert,6,17737,group1,modal,6,Female,56,low,interaction,1.747425803,modal,3.0625,2.025436648,5.9375,1.060033119,5.604166667,1.425297033,4.708333333,1.270924163
2,low_entitlement,40445,survey-likert,7,74693,group2,direct,1,Male,39,low,interaction,-3.252574197,direct,3.0625,2.025436648,5.9375,1.060033119,5.604166667,1.425297033,4.708333333,1.270924163
2,low_entitlement,12982,survey-likert,13,71909,group4,indirect,5,Male,23,low,interaction,0.747425803,indirect,3.0625,2.025436648,5.9375,1.060033119,5.604166667,1.425297033,4.708333333,1.270924163
2,low_entitlement,9866,survey-likert,12,53320,group1,modal,5,Female,33,low,interaction,0.747425803,modal,3.0625,2.025436648,5.9375,1.060033119,5.604166667,1.425297033,4.708333333,1.270924163
2,low_entitlement,6584,survey-likert,15,28898,group1,modal,6,Female,60,low,interaction,1.747425803,modal,3.0625,2.025436648,5.9375,1.060033119,5.604166667,1.425297033,4.708333333,1.270924163
2,low_entitlement,64589,survey-likert,10,65042,group2,direct,3,Male,31,low,interaction,-1.252574197,direct,3.0625,2.025436648,5.9375,1.060033119,5.604166667,1.425297033,4.708333333,1.270924163
2,low_entitlement,5292,survey-likert,15,18718,group2,direct,0,Male,39,low,interaction,-4.252574197,direct,3.0625,2.025436648,5.9375,1.060033119,5.604166667,1.425297033,4.708333333,1.270924163
2,low_entitlement,5147,survey-likert,6,15587,group4,indirect,6,Male,30,low,interaction,1.747425803,indirect,3.0625,2.025436648,5.9375,1.060033119,5.604166667,1.425297033,4.708333333,1.270924163
2,low_entitlement,8117,survey-likert,14,66747,group1,modal,0,Male,23,low,interaction,-4.252574197,modal,3.0625,2.025436648,5.9375,1.060033119,5.604166667,1.425297033,4.708333333,1.270924163
2,low_entitlement,6774,survey-likert,14,90363,group1,modal,5,Male,35,low,interaction,0.747425803,modal,3.0625,2.025436648,5.9375,1.060033119,5.604166667,1.425297033,4.708333333,1.270924163
2,low_entitlement,17293,survey-likert,4,45082,group3,wonder,2,Female,51,low,interaction,-2.252574197,embedded modal,3.0625,2.025436648,5.9375,1.060033119,5.604166667,1.425297033,4.708333333,1.270924163
2,low_entitlement,1887,survey-likert,19,86984,group2,direct,3,Male,22,low,interaction,-1.252574197,direct,3.0625,2.025436648,5.9375,1.060033119,5.604166667,1.425297033,4.708333333,1.270924163
2,low_entitlement,9854,survey-likert,2,5100,group3,wonder,4,Male,45,low,interaction,-0.252574197,embedded modal,3.0625,2.025436648,5.9375,1.060033119,5.604166667,1.425297033,4.708333333,1.270924163
2,low_entitlement,4948,survey-likert,11,45552,group2,direct,2,Male,24,low,interaction,-2.252574197,direct,3.0625,2.025436648,5.9375,1.060033119,5.604166667,1.425297033,4.708333333,1.270924163
2,low_entitlement,4020,survey-likert,18,75477,group1,modal,4,Male,25,low,interaction,-0.252574197,modal,3.0625,2.025436648,5.9375,1.060033119,5.604166667,1.425297033,4.708333333,1.270924163
2,low_entitlement,4123,survey-likert,7,20708,group1,modal,5,Female,27,low,interaction,0.747425803,modal,3.0625,2.025436648,5.9375,1.060033119,5.604166667,1.425297033,4.708333333,1.270924163
2,low_entitlement,4172,survey-likert,5,70835,group3,wonder,6,Male,27,low,interaction,1.747425803,embedded modal,3.0625,2.025436648,5.9375,1.060033119,5.604166667,1.425297033,4.708333333,1.270924163
2,low_entitlement,8731,survey-likert,10,92110,group3,wonder,5,Female,39,low,interaction,0.747425803,embedded modal,3.0625,2.025436648,5.9375,1.060033119,5.604166667,1.425297033,4.708333333,1.270924163
2,low_entitlement,9917,survey-likert,10,49017,group4,indirect,5,Male,35,low,interaction,0.747425803,indirect,3.0625,2.025436648,5.9375,1.060033119,5.604166667,1.425297033,4.708333333,1.270924163
2,low_entitlement,21572,survey-likert,14,92254,group3,wonder,6,Male,54,low,interaction,1.747425803,embedded modal,3.0625,2.025436648,5.9375,1.060033119,5.604166667,1.425297033,4.708333333,1.270924163
2,low_entitlement,4332,survey-likert,8,15639,group3,wonder,5,Male,25,low,interaction,0.747425803,embedded modal,3.0625,2.025436648,5.9375,1.060033119,5.604166667,1.425297033,4.708333333,1.270924163
2,low_entitlement,9118,survey-likert,6,38125,group4,indirect,1,Female,33,low,interaction,-3.252574197,indirect,3.0625,2.025436648,5.9375,1.060033119,5.604166667,1.425297033,4.708333333,1.270924163
2,low_entitlement,24123,survey-likert,2,86454,group1,modal,6,Male,62,low,interaction,1.747425803,modal,3.0625,2.025436648,5.9375,1.060033119,5.604166667,1.425297033,4.708333333,1.270924163
2,low_entitlement,4614,survey-likert,10,47769,group2,direct,0,Female,41,low,interaction,-4.252574197,direct,3.0625,2.025436648,5.9375,1.060033119,5.604166667,1.425297033,4.708333333,1.270924163
2,low_entitlement,6321,survey-likert,16,28767,group1,modal,4,Male,29,low,interaction,-0.252574197,modal,3.0625,2.025436648,5.9375,1.060033119,5.604166667,1.425297033,4.708333333,1.270924163
2,low_entitlement,1835,survey-likert,14,17266,group1,modal,6,Male,26,low,interaction,1.747425803,modal,3.0625,2.025436648,5.9375,1.060033119,5.604166667,1.425297033,4.708333333,1.270924163
3,high_entitlement,19572,survey-likert,16,84774,group2,modal,6,Male,51,high,relationship,1.747425803,modal,5.270833333,1.620868999,3.979166667,1.850699504,3.787234043,2.254812922,4.083333333,1.350072233
3,high_entitlement,11527,survey-likert,17,73278,group4,direct,6,Female,59,high,relationship,1.747425803,direct,5.270833333,1.620868999,3.979166667,1.850699504,3.787234043,2.254812922,4.083333333,1.350072233
3,high_entitlement,16239,survey-likert,14,41322,group2,modal,6,Male,30,high,relationship,1.747425803,modal,5.270833333,1.620868999,3.979166667,1.850699504,3.787234043,2.254812922,4.083333333,1.350072233
3,high_entitlement,6679,survey-likert,11,79926,group4,direct,6,Male,NA,high,relationship,1.747425803,direct,5.270833333,1.620868999,3.979166667,1.850699504,3.787234043,2.254812922,4.083333333,1.350072233
3,high_entitlement,16416,survey-likert,3,15364,group1,wonder,6,Male,26,high,relationship,1.747425803,embedded modal,5.270833333,1.620868999,3.979166667,1.850699504,3.787234043,2.254812922,4.083333333,1.350072233
3,high_entitlement,5156,survey-likert,19,84163,group1,wonder,6,Female,26,high,relationship,1.747425803,embedded modal,5.270833333,1.620868999,3.979166667,1.850699504,3.787234043,2.254812922,4.083333333,1.350072233
3,high_entitlement,37845,survey-likert,10,87309,group1,wonder,5,Male,50,high,relationship,0.747425803,embedded modal,5.270833333,1.620868999,3.979166667,1.850699504,3.787234043,2.254812922,4.083333333,1.350072233
3,high_entitlement,3867,survey-likert,18,81953,group4,direct,5,Female,42,high,relationship,0.747425803,direct,5.270833333,1.620868999,3.979166667,1.850699504,3.787234043,2.254812922,4.083333333,1.350072233
3,high_entitlement,8372,survey-likert,5,61076,group4,direct,6,Female,33,high,relationship,1.747425803,direct,5.270833333,1.620868999,3.979166667,1.850699504,3.787234043,2.254812922,4.083333333,1.350072233
3,high_entitlement,5883,survey-likert,12,87176,group1,wonder,5,Male,31,high,relationship,0.747425803,embedded modal,5.270833333,1.620868999,3.979166667,1.850699504,3.787234043,2.254812922,4.083333333,1.350072233
3,high_entitlement,9217,survey-likert,6,77794,group3,indirect,3,Female,42,high,relationship,-1.252574197,indirect,5.270833333,1.620868999,3.979166667,1.850699504,3.787234043,2.254812922,4.083333333,1.350072233
3,high_entitlement,4089,survey-likert,9,28898,group1,wonder,6,Female,60,high,relationship,1.747425803,embedded modal,5.270833333,1.620868999,3.979166667,1.850699504,3.787234043,2.254812922,4.083333333,1.350072233
3,high_entitlement,9211,survey-likert,9,74284,group4,direct,6,Male,55,high,relationship,1.747425803,direct,5.270833333,1.620868999,3.979166667,1.850699504,3.787234043,2.254812922,4.083333333,1.350072233
3,high_entitlement,11723,survey-likert,9,19384,group2,modal,6,Male,33,high,relationship,1.747425803,modal,5.270833333,1.620868999,3.979166667,1.850699504,3.787234043,2.254812922,4.083333333,1.350072233
3,high_entitlement,13701,survey-likert,14,65327,group2,modal,6,Female,47,high,relationship,1.747425803,modal,5.270833333,1.620868999,3.979166667,1.850699504,3.787234043,2.254812922,4.083333333,1.350072233
3,high_entitlement,5715,survey-likert,15,42259,group3,indirect,1,Male,30,high,relationship,-3.252574197,indirect,5.270833333,1.620868999,3.979166667,1.850699504,3.787234043,2.254812922,4.083333333,1.350072233
3,high_entitlement,1968,survey-likert,3,83487,group3,indirect,3,Female,28,high,relationship,-1.252574197,indirect,5.270833333,1.620868999,3.979166667,1.850699504,3.787234043,2.254812922,4.083333333,1.350072233
3,high_entitlement,8038,survey-likert,5,44059,group4,direct,3,Female,32,high,relationship,-1.252574197,direct,5.270833333,1.620868999,3.979166667,1.850699504,3.787234043,2.254812922,4.083333333,1.350072233
3,high_entitlement,4797,survey-likert,15,45552,group2,modal,6,Male,24,high,relationship,1.747425803,modal,5.270833333,1.620868999,3.979166667,1.850699504,3.787234043,2.254812922,4.083333333,1.350072233
3,high_entitlement,11165,survey-likert,3,58588,group2,modal,6,Male,30,high,relationship,1.747425803,modal,5.270833333,1.620868999,3.979166667,1.850699504,3.787234043,2.254812922,4.083333333,1.350072233
3,high_entitlement,1558,survey-likert,8,1147,group2,modal,3,Male,20,high,relationship,-1.252574197,modal,5.270833333,1.620868999,3.979166667,1.850699504,3.787234043,2.254812922,4.083333333,1.350072233
3,high_entitlement,8620,survey-likert,12,15793,group3,indirect,1,Female,37,high,relationship,-3.252574197,indirect,5.270833333,1.620868999,3.979166667,1.850699504,3.787234043,2.254812922,4.083333333,1.350072233
3,high_entitlement,6293,survey-likert,16,1536,group2,modal,5,Male,34,high,relationship,0.747425803,modal,5.270833333,1.620868999,3.979166667,1.850699504,3.787234043,2.254812922,4.083333333,1.350072233
3,high_entitlement,7982,survey-likert,10,67486,group1,wonder,6,Male,26,high,relationship,1.747425803,embedded modal,5.270833333,1.620868999,3.979166667,1.850699504,3.787234043,2.254812922,4.083333333,1.350072233
3,high_entitlement,3500,survey-likert,4,55429,group4,direct,6,Female,23,high,relationship,1.747425803,direct,5.270833333,1.620868999,3.979166667,1.850699504,3.787234043,2.254812922,4.083333333,1.350072233
3,high_entitlement,18498,survey-likert,10,96726,group2,modal,5,Female,24,high,relationship,0.747425803,modal,5.270833333,1.620868999,3.979166667,1.850699504,3.787234043,2.254812922,4.083333333,1.350072233
3,high_entitlement,5180,survey-likert,3,90363,group1,wonder,6,Male,35,high,relationship,1.747425803,embedded modal,5.270833333,1.620868999,3.979166667,1.850699504,3.787234043,2.254812922,4.083333333,1.350072233
3,high_entitlement,4126,survey-likert,16,84778,group3,indirect,1,Female,28,high,relationship,-3.252574197,indirect,5.270833333,1.620868999,3.979166667,1.850699504,3.787234043,2.254812922,4.083333333,1.350072233
3,high_entitlement,11845,survey-likert,8,83017,group1,wonder,5,Male,43,high,relationship,0.747425803,embedded modal,5.270833333,1.620868999,3.979166667,1.850699504,3.787234043,2.254812922,4.083333333,1.350072233
3,high_entitlement,6532,survey-likert,6,77109,group4,direct,4,Female,39,high,relationship,-0.252574197,direct,5.270833333,1.620868999,3.979166667,1.850699504,3.787234043,2.254812922,4.083333333,1.350072233
3,high_entitlement,14852,survey-likert,13,38200,group1,wonder,4,Male,27,high,relationship,-0.252574197,embedded modal,5.270833333,1.620868999,3.979166667,1.850699504,3.787234043,2.254812922,4.083333333,1.350072233
3,high_entitlement,10860,survey-likert,12,92254,group3,indirect,6,Male,54,high,relationship,1.747425803,indirect,5.270833333,1.620868999,3.979166667,1.850699504,3.787234043,2.254812922,4.083333333,1.350072233
3,high_entitlement,87561,survey-likert,10,50739,group4,direct,4,Female,38,high,relationship,-0.252574197,direct,5.270833333,1.620868999,3.979166667,1.850699504,3.787234043,2.254812922,4.083333333,1.350072233
3,high_entitlement,12340,survey-likert,2,18718,group2,modal,6,Male,39,high,relationship,1.747425803,modal,5.270833333,1.620868999,3.979166667,1.850699504,3.787234043,2.254812922,4.083333333,1.350072233
3,high_entitlement,43808,survey-likert,8,92792,group3,indirect,2,Male,30,high,relationship,-2.252574197,indirect,5.270833333,1.620868999,3.979166667,1.850699504,3.787234043,2.254812922,4.083333333,1.350072233
3,high_entitlement,5139,survey-likert,10,2524,group4,direct,6,Female,34,high,relationship,1.747425803,direct,5.270833333,1.620868999,3.979166667,1.850699504,3.787234043,2.254812922,4.083333333,1.350072233
3,high_entitlement,1121,survey-likert,9,72005,group2,modal,6,Male,24,high,relationship,1.747425803,modal,5.270833333,1.620868999,3.979166667,1.850699504,3.787234043,2.254812922,4.083333333,1.350072233
3,high_entitlement,24698,survey-likert,7,16019,group4,direct,6,Female,34,high,relationship,1.747425803,direct,5.270833333,1.620868999,3.979166667,1.850699504,3.787234043,2.254812922,4.083333333,1.350072233
3,high_entitlement,12534,survey-likert,8,68260,group1,wonder,6,Female,37,high,relationship,1.747425803,embedded modal,5.270833333,1.620868999,3.979166667,1.850699504,3.787234043,2.254812922,4.083333333,1.350072233
3,high_entitlement,8373,survey-likert,6,61656,group1,wonder,5,Male,27,high,relationship,0.747425803,embedded modal,5.270833333,1.620868999,3.979166667,1.850699504,3.787234043,2.254812922,4.083333333,1.350072233
3,high_entitlement,20901,survey-likert,16,55610,group1,wonder,4,Male,70,high,relationship,-0.252574197,embedded modal,5.270833333,1.620868999,3.979166667,1.850699504,3.787234043,2.254812922,4.083333333,1.350072233
3,high_entitlement,15633,survey-likert,9,45082,group3,indirect,3,Female,51,high,relationship,-1.252574197,indirect,5.270833333,1.620868999,3.979166667,1.850699504,3.787234043,2.254812922,4.083333333,1.350072233
3,high_entitlement,10223,survey-likert,9,16731,group3,indirect,0,Male,26,high,relationship,-4.252574197,indirect,5.270833333,1.620868999,3.979166667,1.850699504,3.787234043,2.254812922,4.083333333,1.350072233
3,high_entitlement,2594,survey-likert,3,86984,group2,modal,4,Male,22,high,relationship,-0.252574197,modal,5.270833333,1.620868999,3.979166667,1.850699504,3.787234043,2.254812922,4.083333333,1.350072233
3,high_entitlement,2722,survey-likert,6,64705,group2,modal,5,Male,36,high,relationship,0.747425803,modal,5.270833333,1.620868999,3.979166667,1.850699504,3.787234043,2.254812922,4.083333333,1.350072233
3,high_entitlement,17101,survey-likert,2,15639,group3,indirect,5,Male,25,high,relationship,0.747425803,indirect,5.270833333,1.620868999,3.979166667,1.850699504,3.787234043,2.254812922,4.083333333,1.350072233
3,high_entitlement,8637,survey-likert,11,11221,group1,wonder,5,Male,20,high,relationship,0.747425803,embedded modal,5.270833333,1.620868999,3.979166667,1.850699504,3.787234043,2.254812922,4.083333333,1.350072233
3,high_entitlement,28099,survey-likert,9,70835,group3,indirect,5,Male,27,high,relationship,0.747425803,indirect,5.270833333,1.620868999,3.979166667,1.850699504,3.787234043,2.254812922,4.083333333,1.350072233
3,high_entitlement,16455,survey-likert,4,65042,group2,modal,2,Male,31,high,relationship,-2.252574197,modal,5.270833333,1.620868999,3.979166667,1.850699504,3.787234043,2.254812922,4.083333333,1.350072233
3,high_entitlement,5240,survey-likert,15,54349,group4,direct,3,Female,27,high,relationship,-1.252574197,direct,5.270833333,1.620868999,3.979166667,1.850699504,3.787234043,2.254812922,4.083333333,1.350072233
3,high_entitlement,4386,survey-likert,8,88735,group3,indirect,0,Male,63,high,relationship,-4.252574197,indirect,5.270833333,1.620868999,3.979166667,1.850699504,3.787234043,2.254812922,4.083333333,1.350072233
3,high_entitlement,9872,survey-likert,2,13081,group4,direct,6,Female,36,high,relationship,1.747425803,direct,5.270833333,1.620868999,3.979166667,1.850699504,3.787234043,2.254812922,4.083333333,1.350072233
3,high_entitlement,10960,survey-likert,12,51964,group3,indirect,4,Female,36,high,relationship,-0.252574197,indirect,5.270833333,1.620868999,3.979166667,1.850699504,3.787234043,2.254812922,4.083333333,1.350072233
3,high_entitlement,8318,survey-likert,12,65469,group1,wonder,6,Female,24,high,relationship,1.747425803,embedded modal,5.270833333,1.620868999,3.979166667,1.850699504,3.787234043,2.254812922,4.083333333,1.350072233
3,high_entitlement,13766,survey-likert,14,62400,group4,direct,3,Male,24,high,relationship,-1.252574197,direct,5.270833333,1.620868999,3.979166667,1.850699504,3.787234043,2.254812922,4.083333333,1.350072233
3,high_entitlement,11217,survey-likert,17,92110,group3,indirect,0,Female,39,high,relationship,-4.252574197,indirect,5.270833333,1.620868999,3.979166667,1.850699504,3.787234043,2.254812922,4.083333333,1.350072233
3,high_entitlement,9454,survey-likert,11,49017,group4,direct,5,Male,35,high,relationship,0.747425803,direct,5.270833333,1.620868999,3.979166667,1.850699504,3.787234043,2.254812922,4.083333333,1.350072233
3,high_entitlement,3331,survey-likert,15,17737,group1,wonder,6,Female,56,high,relationship,1.747425803,embedded modal,5.270833333,1.620868999,3.979166667,1.850699504,3.787234043,2.254812922,4.083333333,1.350072233
3,high_entitlement,8156,survey-likert,9,22339,group4,direct,5,Male,45,high,relationship,0.747425803,direct,5.270833333,1.620868999,3.979166667,1.850699504,3.787234043,2.254812922,4.083333333,1.350072233
3,high_entitlement,5568,survey-likert,13,45596,group2,modal,5,Male,34,high,relationship,0.747425803,modal,5.270833333,1.620868999,3.979166667,1.850699504,3.787234043,2.254812922,4.083333333,1.350072233
3,high_entitlement,13922,survey-likert,2,71909,group4,direct,5,Male,23,high,relationship,0.747425803,direct,5.270833333,1.620868999,3.979166667,1.850699504,3.787234043,2.254812922,4.083333333,1.350072233
3,high_entitlement,7284,survey-likert,16,50886,group2,modal,5,Female,44,high,relationship,0.747425803,modal,5.270833333,1.620868999,3.979166667,1.850699504,3.787234043,2.254812922,4.083333333,1.350072233
3,high_entitlement,1808,survey-likert,4,27495,group2,modal,5,Male,22,high,relationship,0.747425803,modal,5.270833333,1.620868999,3.979166667,1.850699504,3.787234043,2.254812922,4.083333333,1.350072233
3,high_entitlement,9790,survey-likert,5,54578,group2,modal,6,Female,34,high,relationship,1.747425803,modal,5.270833333,1.620868999,3.979166667,1.850699504,3.787234043,2.254812922,4.083333333,1.350072233
3,high_entitlement,9654,survey-likert,17,46377,group3,indirect,4,Female,49,high,relationship,-0.252574197,indirect,5.270833333,1.620868999,3.979166667,1.850699504,3.787234043,2.254812922,4.083333333,1.350072233
3,high_entitlement,8743,survey-likert,5,29160,group2,modal,4,Male,32,high,relationship,-0.252574197,modal,5.270833333,1.620868999,3.979166667,1.850699504,3.787234043,2.254812922,4.083333333,1.350072233
3,high_entitlement,5102,survey-likert,7,2654,group3,indirect,5,Male,27,high,relationship,0.747425803,indirect,5.270833333,1.620868999,3.979166667,1.850699504,3.787234043,2.254812922,4.083333333,1.350072233
3,high_entitlement,762,survey-likert,15,70111,group4,direct,5,Female,21,high,relationship,0.747425803,direct,5.270833333,1.620868999,3.979166667,1.850699504,3.787234043,2.254812922,4.083333333,1.350072233
3,high_entitlement,8797,survey-likert,7,16115,group2,modal,4,Male,34,high,relationship,-0.252574197,modal,5.270833333,1.620868999,3.979166667,1.850699504,3.787234043,2.254812922,4.083333333,1.350072233
3,high_entitlement,19337,survey-likert,2,66747,group1,wonder,6,Male,23,high,relationship,1.747425803,embedded modal,5.270833333,1.620868999,3.979166667,1.850699504,3.787234043,2.254812922,4.083333333,1.350072233
3,high_entitlement,10510,survey-likert,15,86454,group1,wonder,6,Male,62,high,relationship,1.747425803,embedded modal,5.270833333,1.620868999,3.979166667,1.850699504,3.787234043,2.254812922,4.083333333,1.350072233
3,high_entitlement,24116,survey-likert,16,75477,group1,wonder,4,Male,25,high,relationship,-0.252574197,embedded modal,5.270833333,1.620868999,3.979166667,1.850699504,3.787234043,2.254812922,4.083333333,1.350072233
3,high_entitlement,4491,survey-likert,12,98850,group1,wonder,2,Male,33,high,relationship,-2.252574197,embedded modal,5.270833333,1.620868999,3.979166667,1.850699504,3.787234043,2.254812922,4.083333333,1.350072233
3,high_entitlement,5270,survey-likert,13,21733,group4,direct,1,Male,24,high,relationship,-3.252574197,direct,5.270833333,1.620868999,3.979166667,1.850699504,3.787234043,2.254812922,4.083333333,1.350072233
3,high_entitlement,6541,survey-likert,18,58581,group2,modal,6,Female,27,high,relationship,1.747425803,modal,5.270833333,1.620868999,3.979166667,1.850699504,3.787234043,2.254812922,4.083333333,1.350072233
3,high_entitlement,8597,survey-likert,19,28767,group1,wonder,6,Male,29,high,relationship,1.747425803,embedded modal,5.270833333,1.620868999,3.979166667,1.850699504,3.787234043,2.254812922,4.083333333,1.350072233
3,high_entitlement,4784,survey-likert,11,15587,group4,direct,4,Male,30,high,relationship,-0.252574197,direct,5.270833333,1.620868999,3.979166667,1.850699504,3.787234043,2.254812922,4.083333333,1.350072233
3,high_entitlement,22780,survey-likert,14,53072,group2,modal,5,Male,26,high,relationship,0.747425803,modal,5.270833333,1.620868999,3.979166667,1.850699504,3.787234043,2.254812922,4.083333333,1.350072233
3,high_entitlement,11186,survey-likert,4,95722,group4,direct,6,Male,40,high,relationship,1.747425803,direct,5.270833333,1.620868999,3.979166667,1.850699504,3.787234043,2.254812922,4.083333333,1.350072233
3,high_entitlement,50187,survey-likert,13,70202,group2,modal,5,Male,23,high,relationship,0.747425803,modal,5.270833333,1.620868999,3.979166667,1.850699504,3.787234043,2.254812922,4.083333333,1.350072233
3,high_entitlement,9259,survey-likert,12,14583,group2,modal,6,Male,32,high,relationship,1.747425803,modal,5.270833333,1.620868999,3.979166667,1.850699504,3.787234043,2.254812922,4.083333333,1.350072233
3,high_entitlement,1571,survey-likert,18,17266,group1,wonder,5,Male,26,high,relationship,0.747425803,embedded modal,5.270833333,1.620868999,3.979166667,1.850699504,3.787234043,2.254812922,4.083333333,1.350072233
