"","X","rt","url","trial_type","trial_index","time_elapsed","internal_node_id","subject","group","turkID","surveyCode","responses","stimType","stimNum","type","formatting","answer","Gender","Age","condition","situation","judgment","formatting.relabel"
"1",6,1590,"","survey-likert",6,37210,"0.0-6.0",1147,"group2","",374176,"{""Q0"":""3""}","high_entitlement",1,"interaction","indirect",3,"Male",20,"high","interaction",-1.25257419745609,"indirect"
"2",14,1671,"","survey-likert",14,59571,"0.0-14.0",1147,"group2","",374176,"{""Q0"":""4""}","low_entitlement",1,"interaction","indirect",4,"Male",20,"low","interaction",-0.252574197456087,"indirect"
"3",5,2240,"","survey-likert",5,34618,"0.0-5.0",1147,"group2","",374176,"{""Q0"":""3""}","low_entitlement",2,"interaction","direct",3,"Male",20,"low","interaction",-1.25257419745609,"direct"
"4",17,17704,"","survey-likert",17,92243,"0.0-17.0",1147,"group2","",374176,"{""Q0"":""3""}","high_entitlement",2,"interaction","direct",3,"Male",20,"high","interaction",-1.25257419745609,"direct"
"5",3,2677,"","survey-likert",3,28349,"0.0-3.0",1147,"group2","",374176,"{""Q0"":""3""}","low_entitlement",3,"relationship","modal",3,"Male",20,"low","relationship",-1.25257419745609,"modal"
"6",8,1558,"","survey-likert",8,42353,"0.0-8.0",1147,"group2","",374176,"{""Q0"":""3""}","high_entitlement",3,"relationship","modal",3,"Male",20,"high","relationship",-1.25257419745609,"modal"
"7",7,1583,"","survey-likert",7,39794,"0.0-7.0",1147,"group2","",374176,"{""Q0"":""4""}","high_entitlement",4,"relationship","wonder",4,"Male",20,"high","relationship",-0.252574197456087,"embedded modal"
"8",15,2831,"","survey-likert",15,63403,"0.0-15.0",1147,"group2","",374176,"{""Q0"":""3""}","low_entitlement",4,"relationship","wonder",3,"Male",20,"low","relationship",-1.25257419745609,"embedded modal"
"9",9,1549,"","survey-likert",9,44905,"0.0-9.0",1147,"group2","",374176,"{""Q0"":""3""}","low_entitlement",5,"institution","indirect",3,"Male",20,"low","institution",-1.25257419745609,"indirect"
"10",10,1511,"","survey-likert",10,47417,"0.0-10.0",1147,"group2","",374176,"{""Q0"":""4""}","high_entitlement",5,"institution","indirect",4,"Male",20,"high","institution",-0.252574197456087,"indirect"
"11",2,7513,"","survey-likert",2,24665,"0.0-2.0",1147,"group2","",374176,"{""Q0"":""4""}","high_entitlement",6,"institution","direct",4,"Male",20,"high","institution",-0.252574197456087,"direct"
"12",4,2026,"","survey-likert",4,31377,"0.0-4.0",1147,"group2","",374176,"{""Q0"":""4""}","low_entitlement",6,"institution","direct",4,"Male",20,"low","institution",-0.252574197456087,"direct"
"13",11,1478,"","survey-likert",11,49897,"0.0-11.0",1147,"group2","",374176,"{""Q0"":""3""}","high_entitlement",7,"urgency","modal",3,"Male",20,"high","urgency",-1.25257419745609,"modal"
"14",16,8880,"","survey-likert",16,73419,"0.0-16.0",1147,"group2","",374176,"{""Q0"":""2""}","low_entitlement",7,"urgency","modal",2,"Male",20,"low","urgency",-2.25257419745609,"modal"
"15",12,2848,"","survey-likert",12,53746,"0.0-12.0",1147,"group2","",374176,"{""Q0"":""3""}","low_entitlement",8,"urgency","wonder",3,"Male",20,"low","urgency",-1.25257419745609,"embedded modal"
"16",18,7377,"","survey-likert",18,100914,"0.0-18.0",1147,"group2","",374176,"{""Q0"":""3""}","high_entitlement",8,"urgency","wonder",3,"Male",20,"high","urgency",-1.25257419745609,"embedded modal"
"17",11,6933,"","survey-likert",11,82317,"0.0-11.0",1536,"group2","",329781,"{""Q0"":""4""}","high_entitlement",1,"interaction","indirect",4,"Male",34,"high","interaction",-0.252574197456087,"indirect"
"18",15,4989,"","survey-likert",15,103789,"0.0-15.0",1536,"group2","",329781,"{""Q0"":""4""}","low_entitlement",1,"interaction","indirect",4,"Male",34,"low","interaction",-0.252574197456087,"indirect"
"19",4,7758,"","survey-likert",4,39972,"0.0-4.0",1536,"group2","",329781,"{""Q0"":""5""}","high_entitlement",2,"interaction","direct",5,"Male",34,"high","interaction",0.747425802543913,"direct"
"20",7,3709,"","survey-likert",7,55996,"0.0-7.0",1536,"group2","",329781,"{""Q0"":""5""}","low_entitlement",2,"interaction","direct",5,"Male",34,"low","interaction",0.747425802543913,"direct"
"21",13,4941,"","survey-likert",13,92829,"0.0-13.0",1536,"group2","",329781,"{""Q0"":""4""}","low_entitlement",3,"relationship","modal",4,"Male",34,"low","relationship",-0.252574197456087,"modal"
"22",16,6293,"","survey-likert",16,111085,"0.0-16.0",1536,"group2","",329781,"{""Q0"":""5""}","high_entitlement",3,"relationship","modal",5,"Male",34,"high","relationship",0.747425802543913,"modal"
"23",6,3869,"","survey-likert",6,51284,"0.0-6.0",1536,"group2","",329781,"{""Q0"":""5""}","high_entitlement",4,"relationship","wonder",5,"Male",34,"high","relationship",0.747425802543913,"embedded modal"
"24",14,3966,"","survey-likert",14,97796,"0.0-14.0",1536,"group2","",329781,"{""Q0"":""5""}","low_entitlement",4,"relationship","wonder",5,"Male",34,"low","relationship",0.747425802543913,"embedded modal"
"25",3,6812,"","survey-likert",3,31212,"0.0-3.0",1536,"group2","",329781,"{""Q0"":""3""}","high_entitlement",5,"institution","indirect",3,"Male",34,"high","institution",-1.25257419745609,"indirect"
"26",12,3567,"","survey-likert",12,86885,"0.0-12.0",1536,"group2","",329781,"{""Q0"":""5""}","low_entitlement",6,"institution","direct",5,"Male",34,"low","institution",0.747425802543913,"direct"
"27",19,3445,"","survey-likert",19,121701,"0.0-19.0",1536,"group2","",329781,"{""Q0"":""3""}","high_entitlement",6,"institution","direct",3,"Male",34,"high","institution",-1.25257419745609,"direct"
"28",9,4235,"","survey-likert",9,70165,"0.0-9.0",1536,"group2","",329781,"{""Q0"":""5""}","low_entitlement",7,"urgency","modal",5,"Male",34,"low","urgency",0.747425802543913,"modal"
"29",18,2717,"","survey-likert",18,117253,"0.0-18.0",1536,"group2","",329781,"{""Q0"":""5""}","high_entitlement",7,"urgency","modal",5,"Male",34,"high","urgency",0.747425802543913,"modal"
"30",8,7926,"","survey-likert",8,64925,"0.0-8.0",1536,"group2","",329781,"{""Q0"":""6""}","high_entitlement",8,"urgency","wonder",6,"Male",34,"high","urgency",1.74742580254391,"embedded modal"
"31",10,3214,"","survey-likert",10,74380,"0.0-10.0",1536,"group2","",329781,"{""Q0"":""5""}","low_entitlement",8,"urgency","wonder",5,"Male",34,"low","urgency",0.747425802543913,"embedded modal"
"32",2,15528,"","survey-likert",2,49221,"0.0-2.0",2524,"group4","",319134,"{""Q0"":""5""}","low_entitlement",1,"interaction","wonder",5,"Female",34,"low","interaction",0.747425802543913,"embedded modal"
"33",4,6661,"","survey-likert",4,67265,"0.0-4.0",2524,"group4","",319134,"{""Q0"":""5""}","high_entitlement",1,"interaction","wonder",5,"Female",34,"high","interaction",0.747425802543913,"embedded modal"
"34",3,9371,"","survey-likert",3,59599,"0.0-3.0",2524,"group4","",319134,"{""Q0"":""2""}","low_entitlement",2,"interaction","indirect",2,"Female",34,"low","interaction",-2.25257419745609,"indirect"
"35",14,10235,"","survey-likert",14,151539,"0.0-14.0",2524,"group4","",319134,"{""Q0"":""3""}","high_entitlement",2,"interaction","indirect",3,"Female",34,"high","interaction",-1.25257419745609,"indirect"
"36",10,5139,"","survey-likert",10,118050,"0.0-10.0",2524,"group4","",319134,"{""Q0"":""6""}","high_entitlement",3,"relationship","direct",6,"Female",34,"high","relationship",1.74742580254391,"direct"
"37",15,7305,"","survey-likert",15,159851,"0.0-15.0",2524,"group4","",319134,"{""Q0"":""3""}","low_entitlement",3,"relationship","direct",3,"Female",34,"low","relationship",-1.25257419745609,"direct"
"38",11,6310,"","survey-likert",11,125366,"0.0-11.0",2524,"group4","",319134,"{""Q0"":""6""}","high_entitlement",4,"relationship","modal",6,"Female",34,"high","relationship",1.74742580254391,"modal"
"39",19,7033,"","survey-likert",19,191689,"0.0-19.0",2524,"group4","",319134,"{""Q0"":""6""}","low_entitlement",4,"relationship","modal",6,"Female",34,"low","relationship",1.74742580254391,"modal"
"40",7,9564,"","survey-likert",7,96588,"0.0-7.0",2524,"group4","",319134,"{""Q0"":""3""}","low_entitlement",5,"institution","wonder",3,"Female",34,"low","institution",-1.25257419745609,"embedded modal"
"41",8,7253,"","survey-likert",8,104849,"0.0-8.0",2524,"group4","",319134,"{""Q0"":""2""}","high_entitlement",5,"institution","wonder",2,"Female",34,"high","institution",-2.25257419745609,"embedded modal"
"42",9,6050,"","survey-likert",9,111906,"0.0-9.0",2524,"group4","",319134,"{""Q0"":""3""}","low_entitlement",6,"institution","indirect",3,"Female",34,"low","institution",-1.25257419745609,"indirect"
"43",17,8214,"","survey-likert",17,176663,"0.0-17.0",2524,"group4","",319134,"{""Q0"":""6""}","high_entitlement",6,"institution","indirect",6,"Female",34,"high","institution",1.74742580254391,"indirect"
"44",5,7402,"","survey-likert",5,75673,"0.0-5.0",2524,"group4","",319134,"{""Q0"":""5""}","high_entitlement",7,"urgency","direct",5,"Female",34,"high","urgency",0.747425802543913,"direct"
"45",6,9341,"","survey-likert",6,86018,"0.0-6.0",2524,"group4","",319134,"{""Q0"":""3""}","low_entitlement",7,"urgency","direct",3,"Female",34,"low","urgency",-1.25257419745609,"direct"
"46",12,6987,"","survey-likert",12,133358,"0.0-12.0",2524,"group4","",319134,"{""Q0"":""6""}","high_entitlement",8,"urgency","modal",6,"Female",34,"high","urgency",1.74742580254391,"modal"
"47",18,5983,"","survey-likert",18,183651,"0.0-18.0",2524,"group4","",319134,"{""Q0"":""6""}","low_entitlement",8,"urgency","modal",6,"Female",34,"low","urgency",1.74742580254391,"modal"
"48",13,33501,"","survey-likert",13,534409,"0.0-13.0",2654,"group3","",835735,"{""Q0"":""4""}","high_entitlement",1,"interaction","modal",4,"Male",27,"high","interaction",-0.252574197456087,"modal"
"49",19,4759,"","survey-likert",19,628088,"0.0-19.0",2654,"group3","",835735,"{""Q0"":""5""}","low_entitlement",1,"interaction","modal",5,"Male",27,"low","interaction",0.747425802543913,"modal"
"50",8,9310,"","survey-likert",8,440832,"0.0-8.0",2654,"group3","",835735,"{""Q0"":""2""}","low_entitlement",2,"interaction","wonder",2,"Male",27,"low","interaction",-2.25257419745609,"embedded modal"
"51",18,2229,"","survey-likert",18,621896,"0.0-18.0",2654,"group3","",835735,"{""Q0"":""3""}","high_entitlement",2,"interaction","wonder",3,"Male",27,"high","interaction",-1.25257419745609,"embedded modal"
"52",5,6525,"","survey-likert",5,418168,"0.0-5.0",2654,"group3","",835735,"{""Q0"":""5""}","low_entitlement",3,"relationship","indirect",5,"Male",27,"low","relationship",0.747425802543913,"indirect"
"53",7,5102,"","survey-likert",7,430520,"0.0-7.0",2654,"group3","",835735,"{""Q0"":""5""}","high_entitlement",3,"relationship","indirect",5,"Male",27,"high","relationship",0.747425802543913,"indirect"
"54",3,188902,"","survey-likert",3,404321,"0.0-3.0",2654,"group3","",835735,"{""Q0"":""6""}","high_entitlement",4,"relationship","direct",6,"Male",27,"high","relationship",1.74742580254391,"direct"
"55",17,3007,"","survey-likert",17,618665,"0.0-17.0",2654,"group3","",835735,"{""Q0"":""5""}","low_entitlement",4,"relationship","direct",5,"Male",27,"low","relationship",0.747425802543913,"direct"
"56",6,5246,"","survey-likert",6,424417,"0.0-6.0",2654,"group3","",835735,"{""Q0"":""6""}","low_entitlement",5,"institution","modal",6,"Male",27,"low","institution",1.74742580254391,"modal"
"57",11,4093,"","survey-likert",11,478585,"0.0-11.0",2654,"group3","",835735,"{""Q0"":""6""}","high_entitlement",5,"institution","modal",6,"Male",27,"high","institution",1.74742580254391,"modal"
"58",9,17869,"","survey-likert",9,459704,"0.0-9.0",2654,"group3","",835735,"{""Q0"":""1""}","high_entitlement",6,"institution","wonder",1,"Male",27,"high","institution",-3.25257419745609,"embedded modal"
"59",15,7640,"","survey-likert",15,608961,"0.0-15.0",2654,"group3","",835735,"{""Q0"":""1""}","low_entitlement",6,"institution","wonder",1,"Male",27,"low","institution",-3.25257419745609,"embedded modal"
"60",14,64117,"","survey-likert",14,599529,"0.0-14.0",2654,"group3","",835735,"{""Q0"":""4""}","low_entitlement",7,"urgency","indirect",4,"Male",27,"low","urgency",-0.252574197456087,"indirect"
"61",16,4695,"","survey-likert",16,614656,"0.0-16.0",2654,"group3","",835735,"{""Q0"":""4""}","high_entitlement",7,"urgency","indirect",4,"Male",27,"high","urgency",-0.252574197456087,"indirect"
"62",4,5316,"","survey-likert",4,410641,"0.0-4.0",2654,"group3","",835735,"{""Q0"":""6""}","low_entitlement",8,"urgency","direct",6,"Male",27,"low","urgency",1.74742580254391,"direct"
"63",12,20318,"","survey-likert",12,499904,"0.0-12.0",2654,"group3","",835735,"{""Q0"":""5""}","high_entitlement",8,"urgency","direct",5,"Male",27,"high","urgency",0.747425802543913,"direct"
"64",2,15683,"","survey-likert",2,31098,"0.0-2.0",3430,"group2","",432290,"{""Q0"":""6""}","high_entitlement",1,"interaction","indirect",6,"Female",23,"high","interaction",1.74742580254391,"indirect"
"65",14,6605,"","survey-likert",14,170641,"0.0-14.0",3430,"group2","",432290,"{""Q0"":""4""}","low_entitlement",1,"interaction","indirect",4,"Female",23,"low","interaction",-0.252574197456087,"indirect"
"66",11,5256,"","survey-likert",11,152145,"0.0-11.0",3430,"group2","",432290,"{""Q0"":""6""}","high_entitlement",2,"interaction","direct",6,"Female",23,"high","interaction",1.74742580254391,"direct"
"67",18,3854,"","survey-likert",18,213946,"0.0-18.0",3430,"group2","",432290,"{""Q0"":""3""}","low_entitlement",2,"interaction","direct",3,"Female",23,"low","interaction",-1.25257419745609,"direct"
"68",9,10805,"","survey-likert",9,104718,"0.0-9.0",3430,"group2","",432290,"{""Q0"":""3""}","low_entitlement",3,"relationship","modal",3,"Female",23,"low","relationship",-1.25257419745609,"modal"
"69",10,39449,"","survey-likert",10,145884,"0.0-10.0",3430,"group2","",432290,"{""Q0"":""3""}","high_entitlement",3,"relationship","modal",3,"Female",23,"high","relationship",-1.25257419745609,"modal"
"70",15,26853,"","survey-likert",15,199288,"0.0-15.0",3430,"group2","",432290,"{""Q0"":""6""}","high_entitlement",4,"relationship","wonder",6,"Female",23,"high","relationship",1.74742580254391,"embedded modal"
"71",19,6281,"","survey-likert",19,221231,"0.0-19.0",3430,"group2","",432290,"{""Q0"":""4""}","low_entitlement",4,"relationship","wonder",4,"Female",23,"low","relationship",-0.252574197456087,"embedded modal"
"72",8,3075,"","survey-likert",8,92909,"0.0-8.0",3430,"group2","",432290,"{""Q0"":""6""}","high_entitlement",5,"institution","indirect",6,"Female",23,"high","institution",1.74742580254391,"indirect"
"73",13,5204,"","survey-likert",13,163031,"0.0-13.0",3430,"group2","",432290,"{""Q0"":""4""}","low_entitlement",5,"institution","indirect",4,"Female",23,"low","institution",-0.252574197456087,"indirect"
"74",3,9302,"","survey-likert",3,41405,"0.0-3.0",3430,"group2","",432290,"{""Q0"":""6""}","low_entitlement",6,"institution","direct",6,"Female",23,"low","institution",1.74742580254391,"direct"
"75",6,11100,"","survey-likert",6,82158,"0.0-6.0",3430,"group2","",432290,"{""Q0"":""6""}","high_entitlement",6,"institution","direct",6,"Female",23,"high","institution",1.74742580254391,"direct"
"76",5,5100,"","survey-likert",5,70054,"0.0-5.0",3430,"group2","",432290,"{""Q0"":""6""}","high_entitlement",7,"urgency","modal",6,"Female",23,"high","urgency",1.74742580254391,"modal"
"77",12,3675,"","survey-likert",12,156825,"0.0-12.0",3430,"group2","",432290,"{""Q0"":""6""}","low_entitlement",7,"urgency","modal",6,"Female",23,"low","urgency",1.74742580254391,"modal"
"78",7,5668,"","survey-likert",7,88830,"0.0-7.0",3430,"group2","",432290,"{""Q0"":""6""}","low_entitlement",8,"urgency","wonder",6,"Female",23,"low","urgency",1.74742580254391,"embedded modal"
"79",17,3573,"","survey-likert",17,209089,"0.0-17.0",3430,"group2","",432290,"{""Q0"":""6""}","high_entitlement",8,"urgency","wonder",6,"Female",23,"high","urgency",1.74742580254391,"embedded modal"
"80",7,6770,"","survey-likert",7,79526,"0.0-7.0",5100,"group3","",770452,"{""Q0"":""3""}","low_entitlement",1,"interaction","modal",3,"Male",45,"low","interaction",-1.25257419745609,"modal"
"81",12,8572,"","survey-likert",12,194836,"0.0-12.0",5100,"group3","",770452,"{""Q0"":""4""}","high_entitlement",1,"interaction","modal",4,"Male",45,"high","interaction",-0.252574197456087,"modal"
"82",2,9854,"","survey-likert",2,35943,"0.0-2.0",5100,"group3","",770452,"{""Q0"":""4""}","low_entitlement",2,"interaction","wonder",4,"Male",45,"low","interaction",-0.252574197456087,"embedded modal"
"83",14,4571,"","survey-likert",14,207443,"0.0-14.0",5100,"group3","",770452,"{""Q0"":""5""}","high_entitlement",2,"interaction","wonder",5,"Male",45,"high","interaction",0.747425802543913,"embedded modal"
"84",10,7128,"","survey-likert",10,173236,"0.0-10.0",5100,"group3","",770452,"{""Q0"":""3""}","low_entitlement",3,"relationship","indirect",3,"Male",45,"low","relationship",-1.25257419745609,"indirect"
"85",11,11021,"","survey-likert",11,185261,"0.0-11.0",5100,"group3","",770452,"{""Q0"":""4""}","high_entitlement",3,"relationship","indirect",4,"Male",45,"high","relationship",-0.252574197456087,"indirect"
"86",6,8817,"","survey-likert",6,71752,"0.0-6.0",5100,"group3","",770452,"{""Q0"":""5""}","high_entitlement",4,"relationship","direct",5,"Male",45,"high","relationship",0.747425802543913,"direct"
"87",9,79065,"","survey-likert",9,165105,"0.0-9.0",5100,"group3","",770452,"{""Q0"":""3""}","low_entitlement",4,"relationship","direct",3,"Male",45,"low","relationship",-1.25257419745609,"direct"
"88",4,8307,"","survey-likert",4,52948,"0.0-4.0",5100,"group3","",770452,"{""Q0"":""4""}","low_entitlement",5,"institution","modal",4,"Male",45,"low","institution",-0.252574197456087,"modal"
"89",15,9060,"","survey-likert",15,217506,"0.0-15.0",5100,"group3","",770452,"{""Q0"":""5""}","high_entitlement",5,"institution","modal",5,"Male",45,"high","institution",0.747425802543913,"modal"
"90",13,6031,"","survey-likert",13,201869,"0.0-13.0",5100,"group3","",770452,"{""Q0"":""4""}","low_entitlement",6,"institution","wonder",4,"Male",45,"low","institution",-0.252574197456087,"embedded modal"
"91",16,5678,"","survey-likert",16,224186,"0.0-16.0",5100,"group3","",770452,"{""Q0"":""6""}","high_entitlement",6,"institution","wonder",6,"Male",45,"high","institution",1.74742580254391,"embedded modal"
"92",3,6691,"","survey-likert",3,43637,"0.0-3.0",5100,"group3","",770452,"{""Q0"":""5""}","high_entitlement",7,"urgency","indirect",5,"Male",45,"high","urgency",0.747425802543913,"indirect"
"93",19,3872,"","survey-likert",19,249744,"0.0-19.0",5100,"group3","",770452,"{""Q0"":""3""}","low_entitlement",7,"urgency","indirect",3,"Male",45,"low","urgency",-1.25257419745609,"indirect"
"94",5,7983,"","survey-likert",5,61933,"0.0-5.0",5100,"group3","",770452,"{""Q0"":""2""}","low_entitlement",8,"urgency","direct",2,"Male",45,"low","urgency",-2.25257419745609,"direct"
"95",17,5936,"","survey-likert",17,231125,"0.0-17.0",5100,"group3","",770452,"{""Q0"":""5""}","high_entitlement",8,"urgency","direct",5,"Male",45,"high","urgency",0.747425802543913,"direct"
"96",2,22696,"","survey-likert",2,56704,"0.0-2.0",9614,"group4","",420840,"{""Q0"":""0""}","low_entitlement",1,"interaction","wonder",0,"Male",26,"low","interaction",-4.25257419745609,"embedded modal"
"97",6,3238,"","survey-likert",6,91382,"0.0-6.0",9614,"group4","",420840,"{""Q0"":""0""}","high_entitlement",1,"interaction","wonder",0,"Male",26,"high","interaction",-4.25257419745609,"embedded modal"
"98",4,15760,"","survey-likert",4,82575,"0.0-4.0",9614,"group4","",420840,"{""Q0"":""5""}","high_entitlement",2,"interaction","indirect",5,"Male",26,"high","interaction",0.747425802543913,"indirect"
"99",5,3555,"","survey-likert",5,87132,"0.0-5.0",9614,"group4","",420840,"{""Q0"":""5""}","low_entitlement",2,"interaction","indirect",5,"Male",26,"low","interaction",0.747425802543913,"indirect"
"100",11,4549,"","survey-likert",11,131687,"0.0-11.0",9614,"group4","",420840,"{""Q0"":""5""}","high_entitlement",3,"relationship","direct",5,"Male",26,"high","relationship",0.747425802543913,"direct"
"101",12,3156,"","survey-likert",12,135846,"0.0-12.0",9614,"group4","",420840,"{""Q0"":""5""}","low_entitlement",3,"relationship","direct",5,"Male",26,"low","relationship",0.747425802543913,"direct"
"102",8,9660,"","survey-likert",8,109070,"0.0-8.0",9614,"group4","",420840,"{""Q0"":""6""}","high_entitlement",4,"relationship","modal",6,"Male",26,"high","relationship",1.74742580254391,"modal"
"103",13,5782,"","survey-likert",13,142647,"0.0-13.0",9614,"group4","",420840,"{""Q0"":""6""}","low_entitlement",4,"relationship","modal",6,"Male",26,"low","relationship",1.74742580254391,"modal"
"104",3,8105,"","survey-likert",3,65815,"0.0-3.0",9614,"group4","",420840,"{""Q0"":""0""}","low_entitlement",5,"institution","wonder",0,"Male",26,"low","institution",-4.25257419745609,"embedded modal"
"105",14,3064,"","survey-likert",14,146713,"0.0-14.0",9614,"group4","",420840,"{""Q0"":""0""}","high_entitlement",5,"institution","wonder",0,"Male",26,"high","institution",-4.25257419745609,"embedded modal"
"106",18,4280,"","survey-likert",18,166647,"0.0-18.0",9614,"group4","",420840,"{""Q0"":""6""}","high_entitlement",6,"institution","indirect",6,"Male",26,"high","institution",1.74742580254391,"indirect"
"107",19,8142,"","survey-likert",19,175790,"0.0-19.0",9614,"group4","",420840,"{""Q0"":""5""}","low_entitlement",6,"institution","indirect",5,"Male",26,"low","institution",0.747425802543913,"indirect"
"108",7,6016,"","survey-likert",7,98401,"0.0-7.0",9614,"group4","",420840,"{""Q0"":""3""}","low_entitlement",7,"urgency","direct",3,"Male",26,"low","urgency",-1.25257419745609,"direct"
"109",15,3795,"","survey-likert",15,151509,"0.0-15.0",9614,"group4","",420840,"{""Q0"":""5""}","high_entitlement",7,"urgency","direct",5,"Male",26,"high","urgency",0.747425802543913,"direct"
"110",16,4992,"","survey-likert",16,157502,"0.0-16.0",9614,"group4","",420840,"{""Q0"":""6""}","high_entitlement",8,"urgency","modal",6,"Male",26,"high","urgency",1.74742580254391,"modal"
"111",17,2853,"","survey-likert",17,161362,"0.0-17.0",9614,"group4","",420840,"{""Q0"":""6""}","low_entitlement",8,"urgency","modal",6,"Male",26,"low","urgency",1.74742580254391,"modal"
"112",10,21183,"","survey-likert",10,131912,"0.0-10.0",11221,"group1","",199759,"{""Q0"":""0""}","low_entitlement",1,"interaction","direct",0,"Male",20,"low","interaction",-4.25257419745609,"direct"
"113",17,6892,"","survey-likert",17,192066,"0.0-17.0",11221,"group1","",199759,"{""Q0"":""0""}","high_entitlement",1,"interaction","direct",0,"Male",20,"high","interaction",-4.25257419745609,"direct"
"114",2,11111,"","survey-likert",2,34549,"0.0-2.0",11221,"group1","",199759,"{""Q0"":""6""}","high_entitlement",2,"interaction","modal",6,"Male",20,"high","interaction",1.74742580254391,"modal"
"115",3,11796,"","survey-likert",3,47348,"0.0-3.0",11221,"group1","",199759,"{""Q0"":""4""}","low_entitlement",2,"interaction","modal",4,"Male",20,"low","interaction",-0.252574197456087,"modal"
"116",11,8637,"","survey-likert",11,141552,"0.0-11.0",11221,"group1","",199759,"{""Q0"":""5""}","high_entitlement",3,"relationship","wonder",5,"Male",20,"high","relationship",0.747425802543913,"embedded modal"
"117",12,5317,"","survey-likert",12,147872,"0.0-12.0",11221,"group1","",199759,"{""Q0"":""5""}","low_entitlement",3,"relationship","wonder",5,"Male",20,"low","relationship",0.747425802543913,"embedded modal"
"118",13,6465,"","survey-likert",13,155340,"0.0-13.0",11221,"group1","",199759,"{""Q0"":""4""}","high_entitlement",4,"relationship","indirect",4,"Male",20,"high","relationship",-0.252574197456087,"indirect"
"119",19,7073,"","survey-likert",19,209567,"0.0-19.0",11221,"group1","",199759,"{""Q0"":""4""}","low_entitlement",4,"relationship","indirect",4,"Male",20,"low","relationship",-0.252574197456087,"indirect"
"120",5,12255,"","survey-likert",5,68336,"0.0-5.0",11221,"group1","",199759,"{""Q0"":""5""}","low_entitlement",5,"institution","direct",5,"Male",20,"low","institution",0.747425802543913,"direct"
"121",15,13623,"","survey-likert",15,177816,"0.0-15.0",11221,"group1","",199759,"{""Q0"":""6""}","high_entitlement",5,"institution","direct",6,"Male",20,"high","institution",1.74742580254391,"direct"
"122",6,7897,"","survey-likert",6,77236,"0.0-6.0",11221,"group1","",199759,"{""Q0"":""2""}","low_entitlement",6,"institution","modal",2,"Male",20,"low","institution",-2.25257419745609,"modal"
"123",18,8424,"","survey-likert",18,201492,"0.0-18.0",11221,"group1","",199759,"{""Q0"":""4""}","high_entitlement",6,"institution","modal",4,"Male",20,"high","institution",-0.252574197456087,"modal"
"124",8,11035,"","survey-likert",8,98374,"0.0-8.0",11221,"group1","",199759,"{""Q0"":""6""}","high_entitlement",7,"urgency","wonder",6,"Male",20,"high","urgency",1.74742580254391,"embedded modal"
"125",14,6846,"","survey-likert",14,163190,"0.0-14.0",11221,"group1","",199759,"{""Q0"":""2""}","low_entitlement",7,"urgency","wonder",2,"Male",20,"low","urgency",-2.25257419745609,"embedded modal"
"126",7,8096,"","survey-likert",7,86336,"0.0-7.0",11221,"group1","",199759,"{""Q0"":""1""}","high_entitlement",8,"urgency","indirect",1,"Male",20,"high","urgency",-3.25257419745609,"indirect"
"127",9,10349,"","survey-likert",9,109726,"0.0-9.0",11221,"group1","",199759,"{""Q0"":""1""}","low_entitlement",8,"urgency","indirect",1,"Male",20,"low","urgency",-3.25257419745609,"indirect"
"128",4,9173,"","survey-likert",4,45261,"0.0-4.0",13081,"group4","",43993,"{""Q0"":""6""}","high_entitlement",1,"interaction","wonder",6,"Female",36,"high","interaction",1.74742580254391,"embedded modal"
"129",14,8203,"","survey-likert",14,136391,"0.0-14.0",13081,"group4","",43993,"{""Q0"":""6""}","low_entitlement",1,"interaction","wonder",6,"Female",36,"low","interaction",1.74742580254391,"embedded modal"
"130",10,11566,"","survey-likert",10,108569,"0.0-10.0",13081,"group4","",43993,"{""Q0"":""5""}","high_entitlement",2,"interaction","indirect",5,"Female",36,"high","interaction",0.747425802543913,"indirect"
"131",13,9679,"","survey-likert",13,127187,"0.0-13.0",13081,"group4","",43993,"{""Q0"":""5""}","low_entitlement",2,"interaction","indirect",5,"Female",36,"low","interaction",0.747425802543913,"indirect"
"132",2,9872,"","survey-likert",2,26889,"0.0-2.0",13081,"group4","",43993,"{""Q0"":""6""}","high_entitlement",3,"relationship","direct",6,"Female",36,"high","relationship",1.74742580254391,"direct"
"133",8,6802,"","survey-likert",8,87388,"0.0-8.0",13081,"group4","",43993,"{""Q0"":""6""}","high_entitlement",4,"relationship","modal",6,"Female",36,"high","relationship",1.74742580254391,"modal"
"134",12,5213,"","survey-likert",12,116506,"0.0-12.0",13081,"group4","",43993,"{""Q0"":""6""}","low_entitlement",4,"relationship","modal",6,"Female",36,"low","relationship",1.74742580254391,"modal"
"135",5,15289,"","survey-likert",5,61552,"0.0-5.0",13081,"group4","",43993,"{""Q0"":""5""}","high_entitlement",5,"institution","wonder",5,"Female",36,"high","institution",0.747425802543913,"embedded modal"
"136",17,8466,"","survey-likert",17,162995,"0.0-17.0",13081,"group4","",43993,"{""Q0"":""6""}","low_entitlement",5,"institution","wonder",6,"Female",36,"low","institution",1.74742580254391,"embedded modal"
"137",16,7576,"","survey-likert",16,153527,"0.0-16.0",13081,"group4","",43993,"{""Q0"":""6""}","low_entitlement",6,"institution","indirect",6,"Female",36,"low","institution",1.74742580254391,"indirect"
"138",18,6132,"","survey-likert",18,170129,"0.0-18.0",13081,"group4","",43993,"{""Q0"":""6""}","high_entitlement",6,"institution","indirect",6,"Female",36,"high","institution",1.74742580254391,"indirect"
"139",9,7613,"","survey-likert",9,96002,"0.0-9.0",13081,"group4","",43993,"{""Q0"":""1""}","low_entitlement",7,"urgency","direct",1,"Female",36,"low","urgency",-3.25257419745609,"direct"
"140",15,7555,"","survey-likert",15,144948,"0.0-15.0",13081,"group4","",43993,"{""Q0"":""3""}","high_entitlement",7,"urgency","direct",3,"Female",36,"high","urgency",-1.25257419745609,"direct"
"141",6,9433,"","survey-likert",6,71987,"0.0-6.0",13081,"group4","",43993,"{""Q0"":""6""}","high_entitlement",8,"urgency","modal",6,"Female",36,"high","urgency",1.74742580254391,"modal"
"142",19,7737,"","survey-likert",19,178869,"0.0-19.0",13081,"group4","",43993,"{""Q0"":""6""}","low_entitlement",8,"urgency","modal",6,"Female",36,"low","urgency",1.74742580254391,"modal"
"143",13,9127,"","survey-likert",13,269076,"0.0-13.0",14583,"group2","",760225,"{""Q0"":""6""}","low_entitlement",1,"interaction","indirect",6,"Male",32,"low","interaction",1.74742580254391,"indirect"
"144",19,15870,"","survey-likert",19,348347,"0.0-19.0",14583,"group2","",760225,"{""Q0"":""6""}","high_entitlement",1,"interaction","indirect",6,"Male",32,"high","interaction",1.74742580254391,"indirect"
"145",3,19083,"","survey-likert",3,131098,"0.0-3.0",14583,"group2","",760225,"{""Q0"":""6""}","low_entitlement",2,"interaction","direct",6,"Male",32,"low","interaction",1.74742580254391,"direct"
"146",11,7839,"","survey-likert",11,248686,"0.0-11.0",14583,"group2","",760225,"{""Q0"":""6""}","high_entitlement",2,"interaction","direct",6,"Male",32,"high","interaction",1.74742580254391,"direct"
"147",5,29084,"","survey-likert",5,169726,"0.0-5.0",14583,"group2","",760225,"{""Q0"":""6""}","low_entitlement",3,"relationship","modal",6,"Male",32,"low","relationship",1.74742580254391,"modal"
"148",12,9259,"","survey-likert",12,258947,"0.0-12.0",14583,"group2","",760225,"{""Q0"":""6""}","high_entitlement",3,"relationship","modal",6,"Male",32,"high","relationship",1.74742580254391,"modal"
"149",17,16213,"","survey-likert",17,319075,"0.0-17.0",14583,"group2","",760225,"{""Q0"":""5""}","high_entitlement",4,"relationship","wonder",5,"Male",32,"high","relationship",0.747425802543913,"embedded modal"
"150",18,11396,"","survey-likert",18,331474,"0.0-18.0",14583,"group2","",760225,"{""Q0"":""5""}","low_entitlement",4,"relationship","wonder",5,"Male",32,"low","relationship",0.747425802543913,"embedded modal"
"151",6,19988,"","survey-likert",6,190719,"0.0-6.0",14583,"group2","",760225,"{""Q0"":""4""}","low_entitlement",5,"institution","indirect",4,"Male",32,"low","institution",-0.252574197456087,"indirect"
"152",7,7786,"","survey-likert",7,199512,"0.0-7.0",14583,"group2","",760225,"{""Q0"":""6""}","high_entitlement",5,"institution","indirect",6,"Male",32,"high","institution",1.74742580254391,"indirect"
"153",2,34156,"","survey-likert",2,111008,"0.0-2.0",14583,"group2","",760225,"{""Q0"":""6""}","low_entitlement",6,"institution","direct",6,"Male",32,"low","institution",1.74742580254391,"direct"
"154",9,8486,"","survey-likert",9,224582,"0.0-9.0",14583,"group2","",760225,"{""Q0"":""6""}","high_entitlement",6,"institution","direct",6,"Male",32,"high","institution",1.74742580254391,"direct"
"155",14,7651,"","survey-likert",14,277731,"0.0-14.0",14583,"group2","",760225,"{""Q0"":""6""}","low_entitlement",7,"urgency","modal",6,"Male",32,"low","urgency",1.74742580254391,"modal"
"156",15,11887,"","survey-likert",15,290623,"0.0-15.0",14583,"group2","",760225,"{""Q0"":""6""}","high_entitlement",7,"urgency","modal",6,"Male",32,"high","urgency",1.74742580254391,"modal"
"157",10,14259,"","survey-likert",10,239844,"0.0-10.0",14583,"group2","",760225,"{""Q0"":""5""}","high_entitlement",8,"urgency","wonder",5,"Male",32,"high","urgency",0.747425802543913,"embedded modal"
"158",16,10232,"","survey-likert",16,301859,"0.0-16.0",14583,"group2","",760225,"{""Q0"":""5""}","low_entitlement",8,"urgency","wonder",5,"Male",32,"low","urgency",0.747425802543913,"embedded modal"
"159",14,28640,"","survey-likert",14,359445,"0.0-14.0",15364,"group1","",530950,"{""Q0"":""1""}","low_entitlement",1,"interaction","direct",1,"Male",26,"low","interaction",-3.25257419745609,"direct"
"160",17,17278,"","survey-likert",17,404255,"0.0-17.0",15364,"group1","",530950,"{""Q0"":""5""}","high_entitlement",1,"interaction","direct",5,"Male",26,"high","interaction",0.747425802543913,"direct"
"161",13,17815,"","survey-likert",13,329792,"0.0-13.0",15364,"group1","",530950,"{""Q0"":""3""}","low_entitlement",2,"interaction","modal",3,"Male",26,"low","interaction",-1.25257419745609,"modal"
"162",15,11668,"","survey-likert",15,372123,"0.0-15.0",15364,"group1","",530950,"{""Q0"":""6""}","high_entitlement",2,"interaction","modal",6,"Male",26,"high","interaction",1.74742580254391,"modal"
"163",3,16416,"","survey-likert",3,117247,"0.0-3.0",15364,"group1","",530950,"{""Q0"":""6""}","high_entitlement",3,"relationship","wonder",6,"Male",26,"high","relationship",1.74742580254391,"embedded modal"
"164",10,39668,"","survey-likert",10,268540,"0.0-10.0",15364,"group1","",530950,"{""Q0"":""6""}","low_entitlement",3,"relationship","wonder",6,"Male",26,"low","relationship",1.74742580254391,"embedded modal"
"165",8,26980,"","survey-likert",8,217657,"0.0-8.0",15364,"group1","",530950,"{""Q0"":""6""}","high_entitlement",4,"relationship","indirect",6,"Male",26,"high","relationship",1.74742580254391,"indirect"
"166",16,12832,"","survey-likert",16,385965,"0.0-16.0",15364,"group1","",530950,"{""Q0"":""3""}","low_entitlement",4,"relationship","indirect",3,"Male",26,"low","relationship",-1.25257419745609,"indirect"
"167",5,24923,"","survey-likert",5,165390,"0.0-5.0",15364,"group1","",530950,"{""Q0"":""3""}","low_entitlement",5,"institution","direct",3,"Male",26,"low","institution",-1.25257419745609,"direct"
"168",18,8725,"","survey-likert",18,413990,"0.0-18.0",15364,"group1","",530950,"{""Q0"":""6""}","high_entitlement",5,"institution","direct",6,"Male",26,"high","institution",1.74742580254391,"direct"
"169",2,32099,"","survey-likert",2,99820,"0.0-2.0",15364,"group1","",530950,"{""Q0"":""4""}","high_entitlement",6,"institution","modal",4,"Male",26,"high","institution",-0.252574197456087,"modal"
"170",7,9173,"","survey-likert",7,189666,"0.0-7.0",15364,"group1","",530950,"{""Q0"":""0""}","low_entitlement",6,"institution","modal",0,"Male",26,"low","institution",-4.25257419745609,"modal"
"171",12,32503,"","survey-likert",12,310967,"0.0-12.0",15364,"group1","",530950,"{""Q0"":""3""}","low_entitlement",7,"urgency","wonder",3,"Male",26,"low","urgency",-1.25257419745609,"embedded modal"
"172",19,10645,"","survey-likert",19,425648,"0.0-19.0",15364,"group1","",530950,"{""Q0"":""6""}","high_entitlement",7,"urgency","wonder",6,"Male",26,"high","urgency",1.74742580254391,"embedded modal"
"173",4,21198,"","survey-likert",4,139462,"0.0-4.0",15364,"group1","",530950,"{""Q0"":""5""}","high_entitlement",8,"urgency","indirect",5,"Male",26,"high","urgency",0.747425802543913,"indirect"
"174",6,13088,"","survey-likert",6,179483,"0.0-6.0",15364,"group1","",530950,"{""Q0"":""3""}","low_entitlement",8,"urgency","indirect",3,"Male",26,"low","urgency",-1.25257419745609,"indirect"
"175",7,9130,"","survey-likert",7,71729,"0.0-7.0",15587,"group4","",827710,"{""Q0"":""5""}","high_entitlement",1,"interaction","wonder",5,"Male",30,"high","interaction",0.747425802543913,"embedded modal"
"176",8,18145,"","survey-likert",8,90878,"0.0-8.0",15587,"group4","",827710,"{""Q0"":""5""}","low_entitlement",1,"interaction","wonder",5,"Male",30,"low","interaction",0.747425802543913,"embedded modal"
"177",6,5147,"","survey-likert",6,61593,"0.0-6.0",15587,"group4","",827710,"{""Q0"":""6""}","low_entitlement",2,"interaction","indirect",6,"Male",30,"low","interaction",1.74742580254391,"indirect"
"178",18,2945,"","survey-likert",18,171169,"0.0-18.0",15587,"group4","",827710,"{""Q0"":""3""}","high_entitlement",2,"interaction","indirect",3,"Male",30,"high","interaction",-1.25257419745609,"indirect"
"179",10,4766,"","survey-likert",10,103569,"0.0-10.0",15587,"group4","",827710,"{""Q0"":""5""}","low_entitlement",3,"relationship","direct",5,"Male",30,"low","relationship",0.747425802543913,"direct"
"180",11,4784,"","survey-likert",11,109357,"0.0-11.0",15587,"group4","",827710,"{""Q0"":""4""}","high_entitlement",3,"relationship","direct",4,"Male",30,"high","relationship",-0.252574197456087,"direct"
"181",4,12831,"","survey-likert",4,50822,"0.0-4.0",15587,"group4","",827710,"{""Q0"":""4""}","high_entitlement",4,"relationship","modal",4,"Male",30,"high","relationship",-0.252574197456087,"modal"
"182",13,4252,"","survey-likert",13,131056,"0.0-13.0",15587,"group4","",827710,"{""Q0"":""5""}","low_entitlement",4,"relationship","modal",5,"Male",30,"low","relationship",0.747425802543913,"modal"
"183",3,11025,"","survey-likert",3,36987,"0.0-3.0",15587,"group4","",827710,"{""Q0"":""4""}","high_entitlement",5,"institution","wonder",4,"Male",30,"high","institution",-0.252574197456087,"embedded modal"
"184",9,5916,"","survey-likert",9,97799,"0.0-9.0",15587,"group4","",827710,"{""Q0"":""2""}","low_entitlement",5,"institution","wonder",2,"Male",30,"low","institution",-2.25257419745609,"embedded modal"
"185",12,15440,"","survey-likert",12,125800,"0.0-12.0",15587,"group4","",827710,"{""Q0"":""0""}","low_entitlement",6,"institution","indirect",0,"Male",30,"low","institution",-4.25257419745609,"indirect"
"186",16,10222,"","survey-likert",16,162404,"0.0-16.0",15587,"group4","",827710,"{""Q0"":""6""}","high_entitlement",6,"institution","indirect",6,"Male",30,"high","institution",1.74742580254391,"indirect"
"187",5,3617,"","survey-likert",5,55443,"0.0-5.0",15587,"group4","",827710,"{""Q0"":""1""}","high_entitlement",7,"urgency","direct",1,"Male",30,"high","urgency",-3.25257419745609,"direct"
"188",17,3813,"","survey-likert",17,167220,"0.0-17.0",15587,"group4","",827710,"{""Q0"":""4""}","low_entitlement",7,"urgency","direct",4,"Male",30,"low","urgency",-0.252574197456087,"direct"
"189",2,8933,"","survey-likert",2,24958,"0.0-2.0",15587,"group4","",827710,"{""Q0"":""5""}","low_entitlement",8,"urgency","modal",5,"Male",30,"low","urgency",0.747425802543913,"modal"
"190",15,2676,"","survey-likert",15,151179,"0.0-15.0",15587,"group4","",827710,"{""Q0"":""5""}","high_entitlement",8,"urgency","modal",5,"Male",30,"high","urgency",0.747425802543913,"modal"
"191",15,8280,"","survey-likert",15,186997,"0.0-15.0",15639,"group3","",467355,"{""Q0"":""6""}","low_entitlement",1,"interaction","modal",6,"Male",25,"low","interaction",1.74742580254391,"modal"
"192",16,3025,"","survey-likert",16,191023,"0.0-16.0",15639,"group3","",467355,"{""Q0"":""6""}","high_entitlement",1,"interaction","modal",6,"Male",25,"high","interaction",1.74742580254391,"modal"
"193",8,4332,"","survey-likert",8,111340,"0.0-8.0",15639,"group3","",467355,"{""Q0"":""5""}","low_entitlement",2,"interaction","wonder",5,"Male",25,"low","interaction",0.747425802543913,"embedded modal"
"194",14,3640,"","survey-likert",14,177715,"0.0-14.0",15639,"group3","",467355,"{""Q0"":""6""}","high_entitlement",2,"interaction","wonder",6,"Male",25,"high","interaction",1.74742580254391,"embedded modal"
"195",2,17101,"","survey-likert",2,32195,"0.0-2.0",15639,"group3","",467355,"{""Q0"":""5""}","high_entitlement",3,"relationship","indirect",5,"Male",25,"high","relationship",0.747425802543913,"indirect"
"196",4,14324,"","survey-likert",4,57058,"0.0-4.0",15639,"group3","",467355,"{""Q0"":""5""}","low_entitlement",3,"relationship","indirect",5,"Male",25,"low","relationship",0.747425802543913,"indirect"
"197",6,10042,"","survey-likert",6,74897,"0.0-6.0",15639,"group3","",467355,"{""Q0"":""4""}","low_entitlement",4,"relationship","direct",4,"Male",25,"low","relationship",-0.252574197456087,"direct"
"198",7,30107,"","survey-likert",7,106005,"0.0-7.0",15639,"group3","",467355,"{""Q0"":""6""}","low_entitlement",5,"institution","modal",6,"Male",25,"low","institution",1.74742580254391,"modal"
"199",19,11695,"","survey-likert",19,222414,"0.0-19.0",15639,"group3","",467355,"{""Q0"":""6""}","high_entitlement",5,"institution","modal",6,"Male",25,"high","institution",1.74742580254391,"modal"
"200",9,4347,"","survey-likert",9,116689,"0.0-9.0",15639,"group3","",467355,"{""Q0"":""6""}","high_entitlement",6,"institution","wonder",6,"Male",25,"high","institution",1.74742580254391,"embedded modal"
"201",12,2008,"","survey-likert",12,169819,"0.0-12.0",15639,"group3","",467355,"{""Q0"":""6""}","low_entitlement",6,"institution","wonder",6,"Male",25,"low","institution",1.74742580254391,"embedded modal"
"202",5,5793,"","survey-likert",5,63853,"0.0-5.0",15639,"group3","",467355,"{""Q0"":""6""}","low_entitlement",7,"urgency","indirect",6,"Male",25,"low","urgency",1.74742580254391,"indirect"
"203",10,4470,"","survey-likert",10,122161,"0.0-10.0",15639,"group3","",467355,"{""Q0"":""6""}","high_entitlement",7,"urgency","indirect",6,"Male",25,"high","urgency",1.74742580254391,"indirect"
"204",17,9273,"","survey-likert",17,201297,"0.0-17.0",15639,"group3","",467355,"{""Q0"":""5""}","high_entitlement",8,"urgency","direct",5,"Male",25,"high","urgency",0.747425802543913,"direct"
"205",18,7418,"","survey-likert",18,209717,"0.0-18.0",15639,"group3","",467355,"{""Q0"":""5""}","low_entitlement",8,"urgency","direct",5,"Male",25,"low","urgency",0.747425802543913,"direct"
"206",2,8781,"","survey-likert",2,55729,"0.0-2.0",15793,"group3","",22212,"{""Q0"":""3""}","high_entitlement",1,"interaction","modal",3,"Female",37,"high","interaction",-1.25257419745609,"modal"
"207",5,10276,"","survey-likert",5,86017,"0.0-5.0",15793,"group3","",22212,"{""Q0"":""5""}","low_entitlement",1,"interaction","modal",5,"Female",37,"low","interaction",0.747425802543913,"modal"
"208",13,9732,"","survey-likert",13,156536,"0.0-13.0",15793,"group3","",22212,"{""Q0"":""4""}","low_entitlement",2,"interaction","wonder",4,"Female",37,"low","interaction",-0.252574197456087,"embedded modal"
"209",17,14156,"","survey-likert",17,199135,"0.0-17.0",15793,"group3","",22212,"{""Q0"":""4""}","high_entitlement",2,"interaction","wonder",4,"Female",37,"high","interaction",-0.252574197456087,"embedded modal"
"210",4,10061,"","survey-likert",4,74737,"0.0-4.0",15793,"group3","",22212,"{""Q0"":""1""}","low_entitlement",3,"relationship","indirect",1,"Female",37,"low","relationship",-3.25257419745609,"indirect"
"211",12,8620,"","survey-likert",12,145760,"0.0-12.0",15793,"group3","",22212,"{""Q0"":""1""}","high_entitlement",3,"relationship","indirect",1,"Female",37,"high","relationship",-3.25257419745609,"indirect"
"212",8,7180,"","survey-likert",8,110536,"0.0-8.0",15793,"group3","",22212,"{""Q0"":""3""}","low_entitlement",4,"relationship","direct",3,"Female",37,"low","relationship",-1.25257419745609,"direct"
"213",9,9122,"","survey-likert",9,120664,"0.0-9.0",15793,"group3","",22212,"{""Q0"":""3""}","high_entitlement",4,"relationship","direct",3,"Female",37,"high","relationship",-1.25257419745609,"direct"
"214",6,7669,"","survey-likert",6,94688,"0.0-6.0",15793,"group3","",22212,"{""Q0"":""6""}","high_entitlement",5,"institution","modal",6,"Female",37,"high","institution",1.74742580254391,"modal"
"215",16,6874,"","survey-likert",16,183975,"0.0-16.0",15793,"group3","",22212,"{""Q0"":""4""}","low_entitlement",5,"institution","modal",4,"Female",37,"low","institution",-0.252574197456087,"modal"
"216",14,7844,"","survey-likert",14,165384,"0.0-14.0",15793,"group3","",22212,"{""Q0"":""5""}","low_entitlement",6,"institution","wonder",5,"Female",37,"low","institution",0.747425802543913,"embedded modal"
"217",19,7669,"","survey-likert",19,216671,"0.0-19.0",15793,"group3","",22212,"{""Q0"":""5""}","high_entitlement",6,"institution","wonder",5,"Female",37,"high","institution",0.747425802543913,"embedded modal"
"218",3,6939,"","survey-likert",3,63672,"0.0-3.0",15793,"group3","",22212,"{""Q0"":""1""}","low_entitlement",7,"urgency","indirect",1,"Female",37,"low","urgency",-3.25257419745609,"indirect"
"219",18,7860,"","survey-likert",18,207999,"0.0-18.0",15793,"group3","",22212,"{""Q0"":""2""}","high_entitlement",7,"urgency","indirect",2,"Female",37,"high","urgency",-2.25257419745609,"indirect"
"220",11,7005,"","survey-likert",11,136136,"0.0-11.0",15793,"group3","",22212,"{""Q0"":""4""}","low_entitlement",8,"urgency","direct",4,"Female",37,"low","urgency",-0.252574197456087,"direct"
"221",15,9709,"","survey-likert",15,176096,"0.0-15.0",15793,"group3","",22212,"{""Q0"":""6""}","high_entitlement",8,"urgency","direct",6,"Female",37,"high","urgency",1.74742580254391,"direct"
"222",11,10588,"","survey-likert",11,193459,"0.0-11.0",16019,"group4","",233947,"{""Q0"":""6""}","low_entitlement",1,"interaction","wonder",6,"Female",34,"low","interaction",1.74742580254391,"embedded modal"
"223",18,13043,"","survey-likert",18,276650,"0.0-18.0",16019,"group4","",233947,"{""Q0"":""6""}","high_entitlement",1,"interaction","wonder",6,"Female",34,"high","interaction",1.74742580254391,"embedded modal"
"224",2,11266,"","survey-likert",2,76676,"0.0-2.0",16019,"group4","",233947,"{""Q0"":""6""}","low_entitlement",2,"interaction","indirect",6,"Female",34,"low","interaction",1.74742580254391,"indirect"
"225",19,9718,"","survey-likert",19,287387,"0.0-19.0",16019,"group4","",233947,"{""Q0"":""6""}","high_entitlement",2,"interaction","indirect",6,"Female",34,"high","interaction",1.74742580254391,"indirect"
"226",7,24698,"","survey-likert",7,147273,"0.0-7.0",16019,"group4","",233947,"{""Q0"":""6""}","high_entitlement",3,"relationship","direct",6,"Female",34,"high","relationship",1.74742580254391,"direct"
"227",10,11260,"","survey-likert",10,181856,"0.0-10.0",16019,"group4","",233947,"{""Q0"":""6""}","low_entitlement",3,"relationship","direct",6,"Female",34,"low","relationship",1.74742580254391,"direct"
"228",8,9362,"","survey-likert",8,157645,"0.0-8.0",16019,"group4","",233947,"{""Q0"":""6""}","low_entitlement",4,"relationship","modal",6,"Female",34,"low","relationship",1.74742580254391,"modal"
"229",14,9129,"","survey-likert",14,226857,"0.0-14.0",16019,"group4","",233947,"{""Q0"":""6""}","high_entitlement",4,"relationship","modal",6,"Female",34,"high","relationship",1.74742580254391,"modal"
"230",5,10045,"","survey-likert",5,110188,"0.0-5.0",16019,"group4","",233947,"{""Q0"":""3""}","high_entitlement",5,"institution","wonder",3,"Female",34,"high","institution",-1.25257419745609,"embedded modal"
"231",6,10360,"","survey-likert",6,121560,"0.0-6.0",16019,"group4","",233947,"{""Q0"":""6""}","low_entitlement",5,"institution","wonder",6,"Female",34,"low","institution",1.74742580254391,"embedded modal"
"232",3,12751,"","survey-likert",3,90446,"0.0-3.0",16019,"group4","",233947,"{""Q0"":""6""}","high_entitlement",6,"institution","indirect",6,"Female",34,"high","institution",1.74742580254391,"indirect"
"233",15,12525,"","survey-likert",15,240398,"0.0-15.0",16019,"group4","",233947,"{""Q0"":""2""}","low_entitlement",6,"institution","indirect",2,"Female",34,"low","institution",-2.25257419745609,"indirect"
"234",16,12970,"","survey-likert",16,254384,"0.0-16.0",16019,"group4","",233947,"{""Q0"":""1""}","high_entitlement",7,"urgency","direct",1,"Female",34,"high","urgency",-3.25257419745609,"direct"
"235",17,7201,"","survey-likert",17,262599,"0.0-17.0",16019,"group4","",233947,"{""Q0"":""0""}","low_entitlement",7,"urgency","direct",0,"Female",34,"low","urgency",-4.25257419745609,"direct"
"236",4,7665,"","survey-likert",4,99127,"0.0-4.0",16019,"group4","",233947,"{""Q0"":""6""}","low_entitlement",8,"urgency","modal",6,"Female",34,"low","urgency",1.74742580254391,"modal"
"237",13,10837,"","survey-likert",13,216714,"0.0-13.0",16019,"group4","",233947,"{""Q0"":""6""}","high_entitlement",8,"urgency","modal",6,"Female",34,"high","urgency",1.74742580254391,"modal"
"238",6,11988,"","survey-likert",6,119590,"0.0-6.0",16115,"group2","",784079,"{""Q0"":""3""}","low_entitlement",1,"interaction","indirect",3,"Male",34,"low","interaction",-1.25257419745609,"indirect"
"239",18,4020,"","survey-likert",18,283773,"0.0-18.0",16115,"group2","",784079,"{""Q0"":""4""}","high_entitlement",1,"interaction","indirect",4,"Male",34,"high","interaction",-0.252574197456087,"indirect"
"240",13,6172,"","survey-likert",13,199164,"0.0-13.0",16115,"group2","",784079,"{""Q0"":""1""}","high_entitlement",2,"interaction","direct",1,"Male",34,"high","interaction",-3.25257419745609,"direct"
"241",17,6677,"","survey-likert",17,278749,"0.0-17.0",16115,"group2","",784079,"{""Q0"":""3""}","low_entitlement",2,"interaction","direct",3,"Male",34,"low","interaction",-1.25257419745609,"direct"
"242",5,7909,"","survey-likert",5,106598,"0.0-5.0",16115,"group2","",784079,"{""Q0"":""4""}","low_entitlement",3,"relationship","modal",4,"Male",34,"low","relationship",-0.252574197456087,"modal"
"243",7,8797,"","survey-likert",7,129389,"0.0-7.0",16115,"group2","",784079,"{""Q0"":""4""}","high_entitlement",3,"relationship","modal",4,"Male",34,"high","relationship",-0.252574197456087,"modal"
"244",11,4996,"","survey-likert",11,166069,"0.0-11.0",16115,"group2","",784079,"{""Q0"":""6""}","low_entitlement",4,"relationship","wonder",6,"Male",34,"low","relationship",1.74742580254391,"embedded modal"
"245",12,24916,"","survey-likert",12,191988,"0.0-12.0",16115,"group2","",784079,"{""Q0"":""4""}","high_entitlement",4,"relationship","wonder",4,"Male",34,"high","relationship",-0.252574197456087,"embedded modal"
"246",2,20564,"","survey-likert",2,61729,"0.0-2.0",16115,"group2","",784079,"{""Q0"":""5""}","low_entitlement",5,"institution","indirect",5,"Male",34,"low","institution",0.747425802543913,"indirect"
"247",15,10764,"","survey-likert",15,229445,"0.0-15.0",16115,"group2","",784079,"{""Q0"":""3""}","high_entitlement",5,"institution","indirect",3,"Male",34,"high","institution",-1.25257419745609,"indirect"
"248",10,5228,"","survey-likert",10,160069,"0.0-10.0",16115,"group2","",784079,"{""Q0"":""6""}","low_entitlement",6,"institution","direct",6,"Male",34,"low","institution",1.74742580254391,"direct"
"249",14,17509,"","survey-likert",14,217677,"0.0-14.0",16115,"group2","",784079,"{""Q0"":""5""}","high_entitlement",6,"institution","direct",5,"Male",34,"high","institution",0.747425802543913,"direct"
"250",4,19300,"","survey-likert",4,97686,"0.0-4.0",16115,"group2","",784079,"{""Q0"":""0""}","low_entitlement",7,"urgency","modal",0,"Male",34,"low","urgency",-4.25257419745609,"modal"
"251",16,40619,"","survey-likert",16,271068,"0.0-16.0",16115,"group2","",784079,"{""Q0"":""1""}","high_entitlement",7,"urgency","modal",1,"Male",34,"high","urgency",-3.25257419745609,"modal"
"252",3,14649,"","survey-likert",3,77383,"0.0-3.0",16115,"group2","",784079,"{""Q0"":""0""}","high_entitlement",8,"urgency","wonder",0,"Male",34,"high","urgency",-4.25257419745609,"embedded modal"
"253",9,8724,"","survey-likert",9,153837,"0.0-9.0",16115,"group2","",784079,"{""Q0"":""3""}","low_entitlement",8,"urgency","wonder",3,"Male",34,"low","urgency",-1.25257419745609,"embedded modal"
"254",3,42064,"","survey-likert",3,102787,"0.0-3.0",16731,"group3","A2NEP51CWP5VQT",524557,"{""Q0"":""5""}","high_entitlement",1,"interaction","modal",5,"Male",26,"high","interaction",0.747425802543913,"modal"
"255",11,4615,"","survey-likert",11,195621,"0.0-11.0",16731,"group3","A2NEP51CWP5VQT",524557,"{""Q0"":""4""}","low_entitlement",1,"interaction","modal",4,"Male",26,"low","interaction",-0.252574197456087,"modal"
"256",2,16006,"","survey-likert",2,59698,"0.0-2.0",16731,"group3","A2NEP51CWP5VQT",524557,"{""Q0"":""4""}","low_entitlement",2,"interaction","wonder",4,"Male",26,"low","interaction",-0.252574197456087,"embedded modal"
"257",18,16381,"","survey-likert",18,257606,"0.0-18.0",16731,"group3","A2NEP51CWP5VQT",524557,"{""Q0"":""1""}","high_entitlement",2,"interaction","wonder",1,"Male",26,"high","interaction",-3.25257419745609,"embedded modal"
"258",9,10223,"","survey-likert",9,180656,"0.0-9.0",16731,"group3","A2NEP51CWP5VQT",524557,"{""Q0"":""0""}","high_entitlement",3,"relationship","indirect",0,"Male",26,"high","relationship",-4.25257419745609,"indirect"
"259",19,17859,"","survey-likert",19,276477,"0.0-19.0",16731,"group3","A2NEP51CWP5VQT",524557,"{""Q0"":""1""}","low_entitlement",3,"relationship","indirect",1,"Male",26,"low","relationship",-3.25257419745609,"indirect"
"260",8,23663,"","survey-likert",8,169409,"0.0-8.0",16731,"group3","A2NEP51CWP5VQT",524557,"{""Q0"":""2""}","low_entitlement",4,"relationship","direct",2,"Male",26,"low","relationship",-2.25257419745609,"direct"
"261",16,3017,"","survey-likert",16,233642,"0.0-16.0",16731,"group3","A2NEP51CWP5VQT",524557,"{""Q0"":""3""}","high_entitlement",4,"relationship","direct",3,"Male",26,"high","relationship",-1.25257419745609,"direct"
"262",13,6748,"","survey-likert",13,210629,"0.0-13.0",16731,"group3","A2NEP51CWP5VQT",524557,"{""Q0"":""5""}","low_entitlement",5,"institution","modal",5,"Male",26,"low","institution",0.747425802543913,"modal"
"263",14,9574,"","survey-likert",14,221214,"0.0-14.0",16731,"group3","A2NEP51CWP5VQT",524557,"{""Q0"":""4""}","high_entitlement",5,"institution","modal",4,"Male",26,"high","institution",-0.252574197456087,"modal"
"264",10,8313,"","survey-likert",10,189992,"0.0-10.0",16731,"group3","A2NEP51CWP5VQT",524557,"{""Q0"":""5""}","high_entitlement",6,"institution","wonder",5,"Male",26,"high","institution",0.747425802543913,"embedded modal"
"265",17,5520,"","survey-likert",17,240206,"0.0-17.0",16731,"group3","A2NEP51CWP5VQT",524557,"{""Q0"":""4""}","low_entitlement",6,"institution","wonder",4,"Male",26,"low","institution",-0.252574197456087,"embedded modal"
"266",5,9732,"","survey-likert",5,125884,"0.0-5.0",16731,"group3","A2NEP51CWP5VQT",524557,"{""Q0"":""2""}","high_entitlement",7,"urgency","indirect",2,"Male",26,"high","urgency",-2.25257419745609,"indirect"
"267",6,10188,"","survey-likert",6,137082,"0.0-6.0",16731,"group3","A2NEP51CWP5VQT",524557,"{""Q0"":""2""}","low_entitlement",7,"urgency","indirect",2,"Male",26,"low","urgency",-2.25257419745609,"indirect"
"268",7,6637,"","survey-likert",7,144732,"0.0-7.0",16731,"group3","A2NEP51CWP5VQT",524557,"{""Q0"":""3""}","low_entitlement",8,"urgency","direct",3,"Male",26,"low","urgency",-1.25257419745609,"direct"
"269",12,6232,"","survey-likert",12,202868,"0.0-12.0",16731,"group3","A2NEP51CWP5VQT",524557,"{""Q0"":""4""}","high_entitlement",8,"urgency","direct",4,"Male",26,"high","urgency",-0.252574197456087,"direct"
"270",3,2848,"","survey-likert",3,81449,"0.0-3.0",17266,"group1","",717592,"{""Q0"":""4""}","low_entitlement",1,"interaction","direct",4,"Male",26,"low","interaction",-0.252574197456087,"direct"
"271",8,1836,"","survey-likert",8,99017,"0.0-8.0",17266,"group1","",717592,"{""Q0"":""4""}","high_entitlement",1,"interaction","direct",4,"Male",26,"high","interaction",-0.252574197456087,"direct"
"272",14,1835,"","survey-likert",14,116504,"0.0-14.0",17266,"group1","",717592,"{""Q0"":""6""}","low_entitlement",2,"interaction","modal",6,"Male",26,"low","interaction",1.74742580254391,"modal"
"273",15,1603,"","survey-likert",15,119113,"0.0-15.0",17266,"group1","",717592,"{""Q0"":""6""}","high_entitlement",2,"interaction","modal",6,"Male",26,"high","interaction",1.74742580254391,"modal"
"274",18,1571,"","survey-likert",18,128074,"0.0-18.0",17266,"group1","",717592,"{""Q0"":""5""}","high_entitlement",3,"relationship","wonder",5,"Male",26,"high","relationship",0.747425802543913,"embedded modal"
"275",4,2300,"","survey-likert",4,84752,"0.0-4.0",17266,"group1","",717592,"{""Q0"":""5""}","low_entitlement",4,"relationship","indirect",5,"Male",26,"low","relationship",0.747425802543913,"indirect"
"276",11,2140,"","survey-likert",11,107762,"0.0-11.0",17266,"group1","",717592,"{""Q0"":""6""}","high_entitlement",4,"relationship","indirect",6,"Male",26,"high","relationship",1.74742580254391,"indirect"
"277",2,39461,"","survey-likert",2,77595,"0.0-2.0",17266,"group1","",717592,"{""Q0"":""3""}","low_entitlement",5,"institution","direct",3,"Male",26,"low","institution",-1.25257419745609,"direct"
"278",10,2060,"","survey-likert",10,104618,"0.0-10.0",17266,"group1","",717592,"{""Q0"":""6""}","high_entitlement",5,"institution","direct",6,"Male",26,"high","institution",1.74742580254391,"direct"
"279",7,2411,"","survey-likert",7,96177,"0.0-7.0",17266,"group1","",717592,"{""Q0"":""6""}","low_entitlement",6,"institution","modal",6,"Male",26,"low","institution",1.74742580254391,"modal"
"280",16,2660,"","survey-likert",16,122778,"0.0-16.0",17266,"group1","",717592,"{""Q0"":""5""}","high_entitlement",6,"institution","modal",5,"Male",26,"high","institution",0.747425802543913,"modal"
"281",13,1820,"","survey-likert",13,113665,"0.0-13.0",17266,"group1","",717592,"{""Q0"":""6""}","low_entitlement",7,"urgency","wonder",6,"Male",26,"low","urgency",1.74742580254391,"embedded modal"
"282",19,1866,"","survey-likert",19,130944,"0.0-19.0",17266,"group1","",717592,"{""Q0"":""6""}","high_entitlement",7,"urgency","wonder",6,"Male",26,"high","urgency",1.74742580254391,"embedded modal"
"283",12,2076,"","survey-likert",12,110841,"0.0-12.0",17266,"group1","",717592,"{""Q0"":""5""}","low_entitlement",8,"urgency","indirect",5,"Male",26,"low","urgency",0.747425802543913,"indirect"
"284",17,1715,"","survey-likert",17,125498,"0.0-17.0",17266,"group1","",717592,"{""Q0"":""6""}","high_entitlement",8,"urgency","indirect",6,"Male",26,"high","urgency",1.74742580254391,"indirect"
"285",12,10744,"","survey-likert",12,144590,"0.0-12.0",17737,"group1","AURYD2FH3FUOQ",184393,"{""Q0"":""0""}","high_entitlement",1,"interaction","direct",0,"Female",56,"high","interaction",-4.25257419745609,"direct"
"286",18,7865,"","survey-likert",18,184016,"0.0-18.0",17737,"group1","AURYD2FH3FUOQ",184393,"{""Q0"":""3""}","low_entitlement",1,"interaction","direct",3,"Female",56,"low","interaction",-1.25257419745609,"direct"
"287",6,9151,"","survey-likert",6,93643,"0.0-6.0",17737,"group1","AURYD2FH3FUOQ",184393,"{""Q0"":""6""}","low_entitlement",2,"interaction","modal",6,"Female",56,"low","interaction",1.74742580254391,"modal"
"288",10,6519,"","survey-likert",10,128148,"0.0-10.0",17737,"group1","AURYD2FH3FUOQ",184393,"{""Q0"":""6""}","high_entitlement",2,"interaction","modal",6,"Female",56,"high","interaction",1.74742580254391,"modal"
"289",15,3331,"","survey-likert",15,160008,"0.0-15.0",17737,"group1","AURYD2FH3FUOQ",184393,"{""Q0"":""6""}","high_entitlement",3,"relationship","wonder",6,"Female",56,"high","relationship",1.74742580254391,"embedded modal"
"290",17,7822,"","survey-likert",17,175144,"0.0-17.0",17737,"group1","AURYD2FH3FUOQ",184393,"{""Q0"":""4""}","low_entitlement",3,"relationship","wonder",4,"Female",56,"low","relationship",-0.252574197456087,"embedded modal"
"291",3,11277,"","survey-likert",3,64550,"0.0-3.0",17737,"group1","AURYD2FH3FUOQ",184393,"{""Q0"":""6""}","low_entitlement",4,"relationship","indirect",6,"Female",56,"low","relationship",1.74742580254391,"indirect"
"292",14,3887,"","survey-likert",14,155674,"0.0-14.0",17737,"group1","AURYD2FH3FUOQ",184393,"{""Q0"":""6""}","high_entitlement",4,"relationship","indirect",6,"Female",56,"high","relationship",1.74742580254391,"indirect"
"293",8,13604,"","survey-likert",8,114730,"0.0-8.0",17737,"group1","AURYD2FH3FUOQ",184393,"{""Q0"":""0""}","low_entitlement",5,"institution","direct",0,"Female",56,"low","institution",-4.25257419745609,"direct"
"294",13,5142,"","survey-likert",13,150735,"0.0-13.0",17737,"group1","AURYD2FH3FUOQ",184393,"{""Q0"":""6""}","high_entitlement",5,"institution","direct",6,"Female",56,"high","institution",1.74742580254391,"direct"
"295",2,15126,"","survey-likert",2,52267,"0.0-2.0",17737,"group1","AURYD2FH3FUOQ",184393,"{""Q0"":""6""}","high_entitlement",6,"institution","modal",6,"Female",56,"high","institution",1.74742580254391,"modal"
"296",11,3648,"","survey-likert",11,132843,"0.0-11.0",17737,"group1","AURYD2FH3FUOQ",184393,"{""Q0"":""6""}","low_entitlement",6,"institution","modal",6,"Female",56,"low","institution",1.74742580254391,"modal"
"297",5,9263,"","survey-likert",5,83484,"0.0-5.0",17737,"group1","AURYD2FH3FUOQ",184393,"{""Q0"":""6""}","high_entitlement",7,"urgency","wonder",6,"Female",56,"high","urgency",1.74742580254391,"embedded modal"
"298",16,4963,"","survey-likert",16,165974,"0.0-16.0",17737,"group1","AURYD2FH3FUOQ",184393,"{""Q0"":""6""}","low_entitlement",7,"urgency","wonder",6,"Female",56,"low","urgency",1.74742580254391,"embedded modal"
"299",4,7596,"","survey-likert",4,73213,"0.0-4.0",17737,"group1","AURYD2FH3FUOQ",184393,"{""Q0"":""6""}","high_entitlement",8,"urgency","indirect",6,"Female",56,"high","urgency",1.74742580254391,"indirect"
"300",9,4885,"","survey-likert",9,120624,"0.0-9.0",17737,"group1","AURYD2FH3FUOQ",184393,"{""Q0"":""6""}","low_entitlement",8,"urgency","indirect",6,"Female",56,"low","urgency",1.74742580254391,"indirect"
"301",9,15092,"","survey-likert",9,139792,"0.0-9.0",18718,"group2","",822450,"{""Q0"":""1""}","low_entitlement",1,"interaction","indirect",1,"Male",39,"low","interaction",-3.25257419745609,"indirect"
"302",19,13180,"","survey-likert",19,248088,"0.0-19.0",18718,"group2","",822450,"{""Q0"":""5""}","high_entitlement",1,"interaction","indirect",5,"Male",39,"high","interaction",0.747425802543913,"indirect"
"303",5,15508,"","survey-likert",5,88641,"0.0-5.0",18718,"group2","",822450,"{""Q0"":""4""}","high_entitlement",2,"interaction","direct",4,"Male",39,"high","interaction",-0.252574197456087,"direct"
"304",15,5292,"","survey-likert",15,199721,"0.0-15.0",18718,"group2","",822450,"{""Q0"":""0""}","low_entitlement",2,"interaction","direct",0,"Male",39,"low","interaction",-4.25257419745609,"direct"
"305",2,12340,"","survey-likert",2,45034,"0.0-2.0",18718,"group2","",822450,"{""Q0"":""6""}","high_entitlement",3,"relationship","modal",6,"Male",39,"high","relationship",1.74742580254391,"modal"
"306",14,13661,"","survey-likert",14,193425,"0.0-14.0",18718,"group2","",822450,"{""Q0"":""1""}","low_entitlement",3,"relationship","modal",1,"Male",39,"low","relationship",-3.25257419745609,"modal"
"307",13,6492,"","survey-likert",13,178760,"0.0-13.0",18718,"group2","",822450,"{""Q0"":""6""}","high_entitlement",4,"relationship","wonder",6,"Male",39,"high","relationship",1.74742580254391,"embedded modal"
"308",17,11443,"","survey-likert",17,224609,"0.0-17.0",18718,"group2","",822450,"{""Q0"":""4""}","low_entitlement",4,"relationship","wonder",4,"Male",39,"low","relationship",-0.252574197456087,"embedded modal"
"309",7,12940,"","survey-likert",7,110968,"0.0-7.0",18718,"group2","",822450,"{""Q0"":""6""}","low_entitlement",5,"institution","indirect",6,"Male",39,"low","institution",1.74742580254391,"indirect"
"310",12,12117,"","survey-likert",12,171264,"0.0-12.0",18718,"group2","",822450,"{""Q0"":""5""}","high_entitlement",5,"institution","indirect",5,"Male",39,"high","institution",0.747425802543913,"indirect"
"311",6,7380,"","survey-likert",6,97024,"0.0-6.0",18718,"group2","",822450,"{""Q0"":""6""}","high_entitlement",6,"institution","direct",6,"Male",39,"high","institution",1.74742580254391,"direct"
"312",18,8292,"","survey-likert",18,233904,"0.0-18.0",18718,"group2","",822450,"{""Q0"":""3""}","low_entitlement",6,"institution","direct",3,"Male",39,"low","institution",-1.25257419745609,"direct"
"313",8,11725,"","survey-likert",8,123696,"0.0-8.0",18718,"group2","",822450,"{""Q0"":""3""}","low_entitlement",7,"urgency","modal",3,"Male",39,"low","urgency",-1.25257419745609,"modal"
"314",16,11437,"","survey-likert",16,212161,"0.0-16.0",18718,"group2","",822450,"{""Q0"":""6""}","high_entitlement",7,"urgency","modal",6,"Male",39,"high","urgency",1.74742580254391,"modal"
"315",3,15730,"","survey-likert",3,61769,"0.0-3.0",18718,"group2","",822450,"{""Q0"":""5""}","high_entitlement",8,"urgency","wonder",5,"Male",39,"high","urgency",0.747425802543913,"embedded modal"
"316",4,9357,"","survey-likert",4,72129,"0.0-4.0",18718,"group2","",822450,"{""Q0"":""6""}","low_entitlement",8,"urgency","wonder",6,"Male",39,"low","urgency",1.74742580254391,"embedded modal"
"317",8,12119,"","survey-likert",8,97947,"0.0-8.0",19384,"group2","",88302,"{""Q0"":""3""}","low_entitlement",1,"interaction","indirect",3,"Male",33,"low","interaction",-1.25257419745609,"indirect"
"318",17,7730,"","survey-likert",17,214494,"0.0-17.0",19384,"group2","",88302,"{""Q0"":""4""}","high_entitlement",1,"interaction","indirect",4,"Male",33,"high","interaction",-0.252574197456087,"indirect"
"319",10,9624,"","survey-likert",10,121301,"0.0-10.0",19384,"group2","",88302,"{""Q0"":""5""}","high_entitlement",2,"interaction","direct",5,"Male",33,"high","interaction",0.747425802543913,"direct"
"320",14,7861,"","survey-likert",14,187908,"0.0-14.0",19384,"group2","",88302,"{""Q0"":""1""}","low_entitlement",2,"interaction","direct",1,"Male",33,"low","interaction",-3.25257419745609,"direct"
"321",9,11723,"","survey-likert",9,110674,"0.0-9.0",19384,"group2","",88302,"{""Q0"":""6""}","high_entitlement",3,"relationship","modal",6,"Male",33,"high","relationship",1.74742580254391,"modal"
"322",19,8169,"","survey-likert",19,233924,"0.0-19.0",19384,"group2","",88302,"{""Q0"":""6""}","low_entitlement",3,"relationship","modal",6,"Male",33,"low","relationship",1.74742580254391,"modal"
"323",5,8854,"","survey-likert",5,72896,"0.0-5.0",19384,"group2","",88302,"{""Q0"":""6""}","high_entitlement",4,"relationship","wonder",6,"Male",33,"high","relationship",1.74742580254391,"embedded modal"
"324",13,12232,"","survey-likert",13,179044,"0.0-13.0",19384,"group2","",88302,"{""Q0"":""6""}","low_entitlement",4,"relationship","wonder",6,"Male",33,"low","relationship",1.74742580254391,"embedded modal"
"325",2,9725,"","survey-likert",2,38477,"0.0-2.0",19384,"group2","",88302,"{""Q0"":""5""}","low_entitlement",5,"institution","indirect",5,"Male",33,"low","institution",0.747425802543913,"indirect"
"326",11,11355,"","survey-likert",11,133660,"0.0-11.0",19384,"group2","",88302,"{""Q0"":""5""}","high_entitlement",5,"institution","indirect",5,"Male",33,"high","institution",0.747425802543913,"indirect"
"327",3,11198,"","survey-likert",3,50678,"0.0-3.0",19384,"group2","",88302,"{""Q0"":""6""}","high_entitlement",6,"institution","direct",6,"Male",33,"high","institution",1.74742580254391,"direct"
"328",12,31147,"","survey-likert",12,165810,"0.0-12.0",19384,"group2","",88302,"{""Q0"":""5""}","low_entitlement",6,"institution","direct",5,"Male",33,"low","institution",0.747425802543913,"direct"
"329",4,11358,"","survey-likert",4,63039,"0.0-4.0",19384,"group2","",88302,"{""Q0"":""4""}","low_entitlement",7,"urgency","modal",4,"Male",33,"low","urgency",-0.252574197456087,"modal"
"330",7,5850,"","survey-likert",7,84825,"0.0-7.0",19384,"group2","",88302,"{""Q0"":""6""}","high_entitlement",7,"urgency","modal",6,"Male",33,"high","urgency",1.74742580254391,"modal"
"331",16,7498,"","survey-likert",16,205762,"0.0-16.0",19384,"group2","",88302,"{""Q0"":""6""}","low_entitlement",8,"urgency","wonder",6,"Male",33,"low","urgency",1.74742580254391,"embedded modal"
"332",18,9256,"","survey-likert",18,224753,"0.0-18.0",19384,"group2","",88302,"{""Q0"":""6""}","high_entitlement",8,"urgency","wonder",6,"Male",33,"high","urgency",1.74742580254391,"embedded modal"
"333",8,8975,"","survey-likert",8,110606,"0.0-8.0",20708,"group1","",840293,"{""Q0"":""1""}","high_entitlement",1,"interaction","direct",1,"Female",27,"high","interaction",-3.25257419745609,"direct"
"334",19,5697,"","survey-likert",19,190937,"0.0-19.0",20708,"group1","",840293,"{""Q0"":""0""}","low_entitlement",1,"interaction","direct",0,"Female",27,"low","interaction",-4.25257419745609,"direct"
"335",3,5175,"","survey-likert",3,77373,"0.0-3.0",20708,"group1","",840293,"{""Q0"":""5""}","high_entitlement",2,"interaction","modal",5,"Female",27,"high","interaction",0.747425802543913,"modal"
"336",7,4123,"","survey-likert",7,100623,"0.0-7.0",20708,"group1","",840293,"{""Q0"":""5""}","low_entitlement",2,"interaction","modal",5,"Female",27,"low","interaction",0.747425802543913,"modal"
"337",16,5308,"","survey-likert",16,160265,"0.0-16.0",20708,"group1","",840293,"{""Q0"":""5""}","low_entitlement",3,"relationship","wonder",5,"Female",27,"low","relationship",0.747425802543913,"embedded modal"
"338",17,18979,"","survey-likert",17,180249,"0.0-17.0",20708,"group1","",840293,"{""Q0"":""5""}","high_entitlement",3,"relationship","wonder",5,"Female",27,"high","relationship",0.747425802543913,"embedded modal"
"339",6,4418,"","survey-likert",6,95494,"0.0-6.0",20708,"group1","",840293,"{""Q0"":""0""}","high_entitlement",4,"relationship","indirect",0,"Female",27,"high","relationship",-4.25257419745609,"indirect"
"340",10,4603,"","survey-likert",10,121457,"0.0-10.0",20708,"group1","",840293,"{""Q0"":""0""}","low_entitlement",4,"relationship","indirect",0,"Female",27,"low","relationship",-4.25257419745609,"indirect"
"341",13,5523,"","survey-likert",13,141512,"0.0-13.0",20708,"group1","",840293,"{""Q0"":""6""}","low_entitlement",5,"institution","direct",6,"Female",27,"low","institution",1.74742580254391,"direct"
"342",14,5916,"","survey-likert",14,148433,"0.0-14.0",20708,"group1","",840293,"{""Q0"":""6""}","high_entitlement",5,"institution","direct",6,"Female",27,"high","institution",1.74742580254391,"direct"
"343",5,4286,"","survey-likert",5,90070,"0.0-5.0",20708,"group1","",840293,"{""Q0"":""6""}","high_entitlement",6,"institution","modal",6,"Female",27,"high","institution",1.74742580254391,"modal"
"344",11,6930,"","survey-likert",11,129392,"0.0-11.0",20708,"group1","",840293,"{""Q0"":""6""}","low_entitlement",6,"institution","modal",6,"Female",27,"low","institution",1.74742580254391,"modal"
"345",4,6395,"","survey-likert",4,84774,"0.0-4.0",20708,"group1","",840293,"{""Q0"":""6""}","high_entitlement",7,"urgency","wonder",6,"Female",27,"high","urgency",1.74742580254391,"embedded modal"
"346",12,4586,"","survey-likert",12,134984,"0.0-12.0",20708,"group1","",840293,"{""Q0"":""5""}","low_entitlement",7,"urgency","wonder",5,"Female",27,"low","urgency",0.747425802543913,"embedded modal"
"347",2,15576,"","survey-likert",2,71192,"0.0-2.0",20708,"group1","",840293,"{""Q0"":""2""}","low_entitlement",8,"urgency","indirect",2,"Female",27,"low","urgency",-2.25257419745609,"indirect"
"348",18,2979,"","survey-likert",18,184233,"0.0-18.0",20708,"group1","",840293,"{""Q0"":""0""}","high_entitlement",8,"urgency","indirect",0,"Female",27,"high","urgency",-4.25257419745609,"indirect"
"349",7,5432,"","survey-likert",7,106503,"0.0-7.0",21733,"group4","",980608,"{""Q0"":""6""}","low_entitlement",1,"interaction","wonder",6,"Male",24,"low","interaction",1.74742580254391,"embedded modal"
"350",14,19588,"","survey-likert",14,202441,"0.0-14.0",21733,"group4","",980608,"{""Q0"":""6""}","high_entitlement",1,"interaction","wonder",6,"Male",24,"high","interaction",1.74742580254391,"embedded modal"
"351",9,7425,"","survey-likert",9,160869,"0.0-9.0",21733,"group4","",980608,"{""Q0"":""6""}","high_entitlement",2,"interaction","indirect",6,"Male",24,"high","interaction",1.74742580254391,"indirect"
"352",15,5883,"","survey-likert",15,209325,"0.0-15.0",21733,"group4","",980608,"{""Q0"":""5""}","low_entitlement",2,"interaction","indirect",5,"Male",24,"low","interaction",0.747425802543913,"indirect"
"353",8,44938,"","survey-likert",8,152443,"0.0-8.0",21733,"group4","",980608,"{""Q0"":""6""}","low_entitlement",3,"relationship","direct",6,"Male",24,"low","relationship",1.74742580254391,"direct"
"354",13,5270,"","survey-likert",13,181851,"0.0-13.0",21733,"group4","",980608,"{""Q0"":""1""}","high_entitlement",3,"relationship","direct",1,"Male",24,"high","relationship",-3.25257419745609,"direct"
"355",4,7407,"","survey-likert",4,39898,"0.0-4.0",21733,"group4","",980608,"{""Q0"":""5""}","low_entitlement",4,"relationship","modal",5,"Male",24,"low","relationship",0.747425802543913,"modal"
"356",17,5339,"","survey-likert",17,223464,"0.0-17.0",21733,"group4","",980608,"{""Q0"":""6""}","high_entitlement",4,"relationship","modal",6,"Male",24,"high","relationship",1.74742580254391,"modal"
"357",12,4282,"","survey-likert",12,175579,"0.0-12.0",21733,"group4","",980608,"{""Q0"":""6""}","low_entitlement",5,"institution","wonder",6,"Male",24,"low","institution",1.74742580254391,"embedded modal"
"358",18,3529,"","survey-likert",18,227996,"0.0-18.0",21733,"group4","",980608,"{""Q0"":""6""}","high_entitlement",5,"institution","wonder",6,"Male",24,"high","institution",1.74742580254391,"embedded modal"
"359",10,2759,"","survey-likert",10,164632,"0.0-10.0",21733,"group4","",980608,"{""Q0"":""6""}","high_entitlement",6,"institution","indirect",6,"Male",24,"high","institution",1.74742580254391,"indirect"
"360",16,6795,"","survey-likert",16,217123,"0.0-16.0",21733,"group4","",980608,"{""Q0"":""3""}","low_entitlement",6,"institution","indirect",3,"Male",24,"low","institution",-1.25257419745609,"indirect"
"361",2,10809,"","survey-likert",2,22864,"0.0-2.0",21733,"group4","",980608,"{""Q0"":""5""}","low_entitlement",7,"urgency","direct",5,"Male",24,"low","urgency",0.747425802543913,"direct"
"362",3,7623,"","survey-likert",3,31489,"0.0-3.0",21733,"group4","",980608,"{""Q0"":""2""}","high_entitlement",7,"urgency","direct",2,"Male",24,"high","urgency",-2.25257419745609,"direct"
"363",11,4663,"","survey-likert",11,170296,"0.0-11.0",21733,"group4","",980608,"{""Q0"":""6""}","high_entitlement",8,"urgency","modal",6,"Male",24,"high","urgency",1.74742580254391,"modal"
"364",19,6373,"","survey-likert",19,235371,"0.0-19.0",21733,"group4","",980608,"{""Q0"":""6""}","low_entitlement",8,"urgency","modal",6,"Male",24,"low","urgency",1.74742580254391,"modal"
"365",6,12852,"","survey-likert",6,98556,"0.0-6.0",22339,"group4","",77161,"{""Q0"":""5""}","high_entitlement",1,"interaction","wonder",5,"Male",45,"high","interaction",0.747425802543913,"embedded modal"
"366",12,14620,"","survey-likert",12,160739,"0.0-12.0",22339,"group4","",77161,"{""Q0"":""5""}","low_entitlement",1,"interaction","wonder",5,"Male",45,"low","interaction",0.747425802543913,"embedded modal"
"367",7,10822,"","survey-likert",7,110380,"0.0-7.0",22339,"group4","",77161,"{""Q0"":""3""}","high_entitlement",2,"interaction","indirect",3,"Male",45,"high","interaction",-1.25257419745609,"indirect"
"368",8,8636,"","survey-likert",8,120020,"0.0-8.0",22339,"group4","",77161,"{""Q0"":""3""}","low_entitlement",2,"interaction","indirect",3,"Male",45,"low","interaction",-1.25257419745609,"indirect"
"369",9,8156,"","survey-likert",9,129179,"0.0-9.0",22339,"group4","",77161,"{""Q0"":""5""}","high_entitlement",3,"relationship","direct",5,"Male",45,"high","relationship",0.747425802543913,"direct"
"370",14,9877,"","survey-likert",14,185011,"0.0-14.0",22339,"group4","",77161,"{""Q0"":""4""}","low_entitlement",3,"relationship","direct",4,"Male",45,"low","relationship",-0.252574197456087,"direct"
"371",3,6732,"","survey-likert",3,64076,"0.0-3.0",22339,"group4","",77161,"{""Q0"":""6""}","high_entitlement",4,"relationship","modal",6,"Male",45,"high","relationship",1.74742580254391,"modal"
"372",15,16749,"","survey-likert",15,202763,"0.0-15.0",22339,"group4","",77161,"{""Q0"":""5""}","low_entitlement",4,"relationship","modal",5,"Male",45,"low","relationship",0.747425802543913,"modal"
"373",4,9349,"","survey-likert",4,74428,"0.0-4.0",22339,"group4","",77161,"{""Q0"":""3""}","high_entitlement",5,"institution","wonder",3,"Male",45,"high","institution",-1.25257419745609,"embedded modal"
"374",10,7869,"","survey-likert",10,138051,"0.0-10.0",22339,"group4","",77161,"{""Q0"":""2""}","low_entitlement",5,"institution","wonder",2,"Male",45,"low","institution",-2.25257419745609,"embedded modal"
"375",5,9269,"","survey-likert",5,84700,"0.0-5.0",22339,"group4","",77161,"{""Q0"":""6""}","high_entitlement",6,"institution","indirect",6,"Male",45,"high","institution",1.74742580254391,"indirect"
"376",16,9269,"","survey-likert",16,213035,"0.0-16.0",22339,"group4","",77161,"{""Q0"":""2""}","low_entitlement",6,"institution","indirect",2,"Male",45,"low","institution",-2.25257419745609,"indirect"
"377",2,12618,"","survey-likert",2,56340,"0.0-2.0",22339,"group4","",77161,"{""Q0"":""2""}","low_entitlement",7,"urgency","direct",2,"Male",45,"low","urgency",-2.25257419745609,"direct"
"378",18,7004,"","survey-likert",18,231987,"0.0-18.0",22339,"group4","",77161,"{""Q0"":""1""}","high_entitlement",7,"urgency","direct",1,"Male",45,"high","urgency",-3.25257419745609,"direct"
"379",17,9941,"","survey-likert",17,223979,"0.0-17.0",22339,"group4","",77161,"{""Q0"":""6""}","low_entitlement",8,"urgency","modal",6,"Male",45,"low","urgency",1.74742580254391,"modal"
"380",19,11581,"","survey-likert",19,244571,"0.0-19.0",22339,"group4","",77161,"{""Q0"":""6""}","high_entitlement",8,"urgency","modal",6,"Male",45,"high","urgency",1.74742580254391,"modal"
"381",6,6703,"","survey-likert",6,96579,"0.0-6.0",23900,"group2","",589565,"{""Q0"":""2""}","low_entitlement",1,"interaction","indirect",2,"Male",27,"low","interaction",-2.25257419745609,"indirect"
"382",13,4497,"","survey-likert",13,161479,"0.0-13.0",23900,"group2","",589565,"{""Q0"":""1""}","high_entitlement",1,"interaction","indirect",1,"Male",27,"high","interaction",-3.25257419745609,"indirect"
"383",7,8798,"","survey-likert",7,106386,"0.0-7.0",23900,"group2","",589565,"{""Q0"":""4""}","low_entitlement",2,"interaction","direct",4,"Male",27,"low","interaction",-0.252574197456087,"direct"
"384",8,8751,"","survey-likert",8,116145,"0.0-8.0",23900,"group2","",589565,"{""Q0"":""4""}","high_entitlement",2,"interaction","direct",4,"Male",27,"high","interaction",-0.252574197456087,"direct"
"385",2,18137,"","survey-likert",2,39253,"0.0-2.0",23900,"group2","",589565,"{""Q0"":""3""}","high_entitlement",3,"relationship","modal",3,"Male",27,"high","relationship",-1.25257419745609,"modal"
"386",12,16625,"","survey-likert",12,155969,"0.0-12.0",23900,"group2","",589565,"{""Q0"":""3""}","low_entitlement",3,"relationship","modal",3,"Male",27,"low","relationship",-1.25257419745609,"modal"
"387",4,13957,"","survey-likert",4,68715,"0.0-4.0",23900,"group2","",589565,"{""Q0"":""5""}","high_entitlement",4,"relationship","wonder",5,"Male",27,"high","relationship",0.747425802543913,"embedded modal"
"388",5,19133,"","survey-likert",5,88868,"0.0-5.0",23900,"group2","",589565,"{""Q0"":""5""}","low_entitlement",4,"relationship","wonder",5,"Male",27,"low","relationship",0.747425802543913,"embedded modal"
"389",3,13447,"","survey-likert",3,53740,"0.0-3.0",23900,"group2","",589565,"{""Q0"":""5""}","low_entitlement",5,"institution","indirect",5,"Male",27,"low","institution",0.747425802543913,"indirect"
"390",18,9873,"","survey-likert",18,211518,"0.0-18.0",23900,"group2","",589565,"{""Q0"":""1""}","high_entitlement",5,"institution","indirect",1,"Male",27,"high","institution",-3.25257419745609,"indirect"
"391",16,18123,"","survey-likert",16,194568,"0.0-16.0",23900,"group2","",589565,"{""Q0"":""1""}","low_entitlement",6,"institution","direct",1,"Male",27,"low","institution",-3.25257419745609,"direct"
"392",19,7108,"","survey-likert",19,219638,"0.0-19.0",23900,"group2","",589565,"{""Q0"":""3""}","high_entitlement",6,"institution","direct",3,"Male",27,"high","institution",-1.25257419745609,"direct"
"393",9,7073,"","survey-likert",9,124227,"0.0-9.0",23900,"group2","",589565,"{""Q0"":""5""}","low_entitlement",7,"urgency","modal",5,"Male",27,"low","urgency",0.747425802543913,"modal"
"394",14,4208,"","survey-likert",14,166733,"0.0-14.0",23900,"group2","",589565,"{""Q0"":""4""}","high_entitlement",7,"urgency","modal",4,"Male",27,"high","urgency",-0.252574197456087,"modal"
"395",15,7692,"","survey-likert",15,175436,"0.0-15.0",23900,"group2","",589565,"{""Q0"":""5""}","high_entitlement",8,"urgency","wonder",5,"Male",27,"high","urgency",0.747425802543913,"embedded modal"
"396",17,5063,"","survey-likert",17,200635,"0.0-17.0",23900,"group2","",589565,"{""Q0"":""5""}","low_entitlement",8,"urgency","wonder",5,"Male",27,"low","urgency",0.747425802543913,"embedded modal"
"397",3,71917,"","survey-likert",3,142673,"0.0-3.0",24477,"group3","",960714,"{""Q0"":""4""}","low_entitlement",1,"interaction","modal",4,"Male",55,"low","interaction",-0.252574197456087,"modal"
"398",14,25111,"","survey-likert",14,334826,"0.0-14.0",24477,"group3","",960714,"{""Q0"":""6""}","high_entitlement",1,"interaction","modal",6,"Male",55,"high","interaction",1.74742580254391,"modal"
"399",2,26099,"","survey-likert",2,69754,"0.0-2.0",24477,"group3","",960714,"{""Q0"":""5""}","low_entitlement",2,"interaction","wonder",5,"Male",55,"low","interaction",0.747425802543913,"embedded modal"
"400",7,7383,"","survey-likert",7,202706,"0.0-7.0",24477,"group3","",960714,"{""Q0"":""5""}","high_entitlement",2,"interaction","wonder",5,"Male",55,"high","interaction",0.747425802543913,"embedded modal"
"401",8,23751,"","survey-likert",8,227458,"0.0-8.0",24477,"group3","",960714,"{""Q0"":""5""}","high_entitlement",3,"relationship","indirect",5,"Male",55,"high","relationship",0.747425802543913,"indirect"
"402",15,29894,"","survey-likert",15,365722,"0.0-15.0",24477,"group3","",960714,"{""Q0"":""1""}","low_entitlement",3,"relationship","indirect",1,"Male",55,"low","relationship",-3.25257419745609,"indirect"
"403",4,14774,"","survey-likert",4,158449,"0.0-4.0",24477,"group3","",960714,"{""Q0"":""3""}","high_entitlement",4,"relationship","direct",3,"Male",55,"high","relationship",-1.25257419745609,"direct"
"404",5,13693,"","survey-likert",5,173145,"0.0-5.0",24477,"group3","",960714,"{""Q0"":""4""}","low_entitlement",4,"relationship","direct",4,"Male",55,"low","relationship",-0.252574197456087,"direct"
"405",16,18238,"","survey-likert",16,384962,"0.0-16.0",24477,"group3","",960714,"{""Q0"":""4""}","low_entitlement",5,"institution","modal",4,"Male",55,"low","institution",-0.252574197456087,"modal"
"406",19,21198,"","survey-likert",19,433890,"0.0-19.0",24477,"group3","",960714,"{""Q0"":""6""}","high_entitlement",5,"institution","modal",6,"Male",55,"high","institution",1.74742580254391,"modal"
"407",10,8559,"","survey-likert",10,253259,"0.0-10.0",24477,"group3","",960714,"{""Q0"":""6""}","low_entitlement",6,"institution","wonder",6,"Male",55,"low","institution",1.74742580254391,"embedded modal"
"408",17,16894,"","survey-likert",17,402858,"0.0-17.0",24477,"group3","",960714,"{""Q0"":""6""}","high_entitlement",6,"institution","wonder",6,"Male",55,"high","institution",1.74742580254391,"embedded modal"
"409",11,15989,"","survey-likert",11,270250,"0.0-11.0",24477,"group3","",960714,"{""Q0"":""3""}","high_entitlement",7,"urgency","indirect",3,"Male",55,"high","urgency",-1.25257419745609,"indirect"
"410",12,13813,"","survey-likert",12,285066,"0.0-12.0",24477,"group3","",960714,"{""Q0"":""2""}","low_entitlement",7,"urgency","indirect",2,"Male",55,"low","urgency",-2.25257419745609,"indirect"
"411",6,20175,"","survey-likert",6,194321,"0.0-6.0",24477,"group3","",960714,"{""Q0"":""1""}","low_entitlement",8,"urgency","direct",1,"Male",55,"low","urgency",-3.25257419745609,"direct"
"412",9,15237,"","survey-likert",9,243698,"0.0-9.0",24477,"group3","",960714,"{""Q0"":""4""}","high_entitlement",8,"urgency","direct",4,"Male",55,"high","urgency",-0.252574197456087,"direct"
"413",14,24341,"","survey-likert",14,697624,"0.0-14.0",25173,"group1","",331328,"{""Q0"":""5""}","low_entitlement",1,"interaction","direct",5,"Male",32,"low","interaction",0.747425802543913,"direct"
"414",18,14805,"","survey-likert",18,738875,"0.0-18.0",25173,"group1","",331328,"{""Q0"":""6""}","high_entitlement",1,"interaction","direct",6,"Male",32,"high","interaction",1.74742580254391,"direct"
"415",7,12369,"","survey-likert",7,569371,"0.0-7.0",25173,"group1","",331328,"{""Q0"":""6""}","high_entitlement",2,"interaction","modal",6,"Male",32,"high","interaction",1.74742580254391,"modal"
"416",17,7284,"","survey-likert",17,723067,"0.0-17.0",25173,"group1","",331328,"{""Q0"":""3""}","low_entitlement",2,"interaction","modal",3,"Male",32,"low","interaction",-1.25257419745609,"modal"
"417",4,23166,"","survey-likert",4,528365,"0.0-4.0",25173,"group1","",331328,"{""Q0"":""5""}","high_entitlement",3,"relationship","wonder",5,"Male",32,"high","relationship",0.747425802543913,"embedded modal"
"418",12,24829,"","survey-likert",12,662345,"0.0-12.0",25173,"group1","",331328,"{""Q0"":""2""}","low_entitlement",3,"relationship","wonder",2,"Male",32,"low","relationship",-2.25257419745609,"embedded modal"
"419",6,17144,"","survey-likert",6,555999,"0.0-6.0",25173,"group1","",331328,"{""Q0"":""5""}","high_entitlement",4,"relationship","indirect",5,"Male",32,"high","relationship",0.747425802543913,"indirect"
"420",8,27771,"","survey-likert",8,598144,"0.0-8.0",25173,"group1","",331328,"{""Q0"":""4""}","low_entitlement",4,"relationship","indirect",4,"Male",32,"low","relationship",-0.252574197456087,"indirect"
"421",2,412501,"","survey-likert",2,480453,"0.0-2.0",25173,"group1","",331328,"{""Q0"":""4""}","low_entitlement",5,"institution","direct",4,"Male",32,"low","institution",-0.252574197456087,"direct"
"422",19,6275,"","survey-likert",19,746153,"0.0-19.0",25173,"group1","",331328,"{""Q0"":""6""}","high_entitlement",5,"institution","direct",6,"Male",32,"high","institution",1.74742580254391,"direct"
"423",3,22738,"","survey-likert",3,504195,"0.0-3.0",25173,"group1","",331328,"{""Q0"":""4""}","high_entitlement",6,"institution","modal",4,"Male",32,"high","institution",-0.252574197456087,"modal"
"424",5,8482,"","survey-likert",5,537851,"0.0-5.0",25173,"group1","",331328,"{""Q0"":""6""}","low_entitlement",6,"institution","modal",6,"Male",32,"low","institution",1.74742580254391,"modal"
"425",15,6414,"","survey-likert",15,705041,"0.0-15.0",25173,"group1","",331328,"{""Q0"":""5""}","low_entitlement",7,"urgency","wonder",5,"Male",32,"low","urgency",0.747425802543913,"embedded modal"
"426",16,8733,"","survey-likert",16,714779,"0.0-16.0",25173,"group1","",331328,"{""Q0"":""6""}","high_entitlement",7,"urgency","wonder",6,"Male",32,"high","urgency",1.74742580254391,"embedded modal"
"427",11,16106,"","survey-likert",11,636514,"0.0-11.0",25173,"group1","",331328,"{""Q0"":""3""}","high_entitlement",8,"urgency","indirect",3,"Male",32,"high","urgency",-1.25257419745609,"indirect"
"428",13,8931,"","survey-likert",13,672279,"0.0-13.0",25173,"group1","",331328,"{""Q0"":""5""}","low_entitlement",8,"urgency","indirect",5,"Male",32,"low","urgency",0.747425802543913,"indirect"
"429",4,15068,"","survey-likert",4,72655,"0.0-4.0",25948,"group3","",381854,"{""Q0"":""4""}","high_entitlement",1,"interaction","modal",4,"Male",41,"high","interaction",-0.252574197456087,"modal"
"430",10,9083,"","survey-likert",10,158758,"0.0-10.0",25948,"group3","",381854,"{""Q0"":""4""}","low_entitlement",1,"interaction","modal",4,"Male",41,"low","interaction",-0.252574197456087,"modal"
"431",16,5580,"","survey-likert",16,200054,"0.0-16.0",25948,"group3","",381854,"{""Q0"":""4""}","high_entitlement",2,"interaction","wonder",4,"Male",41,"high","interaction",-0.252574197456087,"embedded modal"
"432",17,6692,"","survey-likert",17,207749,"0.0-17.0",25948,"group3","",381854,"{""Q0"":""4""}","low_entitlement",2,"interaction","wonder",4,"Male",41,"low","interaction",-0.252574197456087,"embedded modal"
"433",6,18238,"","survey-likert",6,103312,"0.0-6.0",25948,"group3","",381854,"{""Q0"":""4""}","low_entitlement",3,"relationship","indirect",4,"Male",41,"low","relationship",-0.252574197456087,"indirect"
"434",19,7109,"","survey-likert",19,237870,"0.0-19.0",25948,"group3","",381854,"{""Q0"":""4""}","high_entitlement",3,"relationship","indirect",4,"Male",41,"high","relationship",-0.252574197456087,"indirect"
"435",5,10412,"","survey-likert",5,84071,"0.0-5.0",25948,"group3","",381854,"{""Q0"":""3""}","low_entitlement",4,"relationship","direct",3,"Male",41,"low","relationship",-1.25257419745609,"direct"
"436",7,7580,"","survey-likert",7,111895,"0.0-7.0",25948,"group3","",381854,"{""Q0"":""4""}","high_entitlement",4,"relationship","direct",4,"Male",41,"high","relationship",-0.252574197456087,"direct"
"437",3,6819,"","survey-likert",3,56582,"0.0-3.0",25948,"group3","",381854,"{""Q0"":""4""}","high_entitlement",5,"institution","modal",4,"Male",41,"high","institution",-0.252574197456087,"modal"
"438",15,4980,"","survey-likert",15,193470,"0.0-15.0",25948,"group3","",381854,"{""Q0"":""4""}","low_entitlement",5,"institution","modal",4,"Male",41,"low","institution",-0.252574197456087,"modal"
"439",8,5853,"","survey-likert",8,118751,"0.0-8.0",25948,"group3","",381854,"{""Q0"":""4""}","high_entitlement",6,"institution","wonder",4,"Male",41,"high","institution",-0.252574197456087,"embedded modal"
"440",14,5653,"","survey-likert",14,187486,"0.0-14.0",25948,"group3","",381854,"{""Q0"":""4""}","low_entitlement",6,"institution","wonder",4,"Male",41,"low","institution",-0.252574197456087,"embedded modal"
"441",9,28915,"","survey-likert",9,148670,"0.0-9.0",25948,"group3","",381854,"{""Q0"":""4""}","high_entitlement",7,"urgency","indirect",4,"Male",41,"high","urgency",-0.252574197456087,"indirect"
"442",18,21005,"","survey-likert",18,229758,"0.0-18.0",25948,"group3","",381854,"{""Q0"":""4""}","low_entitlement",7,"urgency","indirect",4,"Male",41,"low","urgency",-0.252574197456087,"indirect"
"443",11,5303,"","survey-likert",11,165062,"0.0-11.0",25948,"group3","",381854,"{""Q0"":""4""}","low_entitlement",8,"urgency","direct",4,"Male",41,"low","urgency",-0.252574197456087,"direct"
"444",12,7556,"","survey-likert",12,173622,"0.0-12.0",25948,"group3","",381854,"{""Q0"":""4""}","high_entitlement",8,"urgency","direct",4,"Male",41,"high","urgency",-0.252574197456087,"direct"
"445",6,1273,"","survey-likert",6,27419,"0.0-6.0",27495,"group2","A3963FCT1PKKOH",430529,"{""Q0"":""4""}","high_entitlement",1,"interaction","indirect",4,"Male",22,"high","interaction",-0.252574197456087,"indirect"
"446",7,729,"","survey-likert",7,29157,"0.0-7.0",27495,"group2","A3963FCT1PKKOH",430529,"{""Q0"":""6""}","low_entitlement",1,"interaction","indirect",6,"Male",22,"low","interaction",1.74742580254391,"indirect"
"447",9,643,"","survey-likert",9,32862,"0.0-9.0",27495,"group2","A3963FCT1PKKOH",430529,"{""Q0"":""6""}","low_entitlement",2,"interaction","direct",6,"Male",22,"low","interaction",1.74742580254391,"direct"
"448",18,2894,"","survey-likert",18,53990,"0.0-18.0",27495,"group2","A3963FCT1PKKOH",430529,"{""Q0"":""6""}","high_entitlement",2,"interaction","direct",6,"Male",22,"high","interaction",1.74742580254391,"direct"
"449",4,1808,"","survey-likert",4,22012,"0.0-4.0",27495,"group2","A3963FCT1PKKOH",430529,"{""Q0"":""5""}","high_entitlement",3,"relationship","modal",5,"Male",22,"high","relationship",0.747425802543913,"modal"
"450",8,1050,"","survey-likert",8,31214,"0.0-8.0",27495,"group2","A3963FCT1PKKOH",430529,"{""Q0"":""4""}","low_entitlement",3,"relationship","modal",4,"Male",22,"low","relationship",-0.252574197456087,"modal"
"451",15,693,"","survey-likert",15,45646,"0.0-15.0",27495,"group2","A3963FCT1PKKOH",430529,"{""Q0"":""6""}","low_entitlement",4,"relationship","wonder",6,"Male",22,"low","relationship",1.74742580254391,"embedded modal"
"452",16,1157,"","survey-likert",16,47840,"0.0-16.0",27495,"group2","A3963FCT1PKKOH",430529,"{""Q0"":""4""}","high_entitlement",4,"relationship","wonder",4,"Male",22,"high","relationship",-0.252574197456087,"embedded modal"
"453",11,1128,"","survey-likert",11,37183,"0.0-11.0",27495,"group2","A3963FCT1PKKOH",430529,"{""Q0"":""5""}","low_entitlement",5,"institution","indirect",5,"Male",22,"low","institution",0.747425802543913,"indirect"
"454",12,1481,"","survey-likert",12,39669,"0.0-12.0",27495,"group2","A3963FCT1PKKOH",430529,"{""Q0"":""4""}","high_entitlement",5,"institution","indirect",4,"Male",22,"high","institution",-0.252574197456087,"indirect"
"455",13,865,"","survey-likert",13,41545,"0.0-13.0",27495,"group2","A3963FCT1PKKOH",430529,"{""Q0"":""6""}","low_entitlement",6,"institution","direct",6,"Male",22,"low","institution",1.74742580254391,"direct"
"456",19,1074,"","survey-likert",19,56077,"0.0-19.0",27495,"group2","A3963FCT1PKKOH",430529,"{""Q0"":""4""}","high_entitlement",6,"institution","direct",4,"Male",22,"high","institution",-0.252574197456087,"direct"
"457",5,2119,"","survey-likert",5,25140,"0.0-5.0",27495,"group2","A3963FCT1PKKOH",430529,"{""Q0"":""4""}","high_entitlement",7,"urgency","modal",4,"Male",22,"high","urgency",-0.252574197456087,"modal"
"458",14,1396,"","survey-likert",14,43947,"0.0-14.0",27495,"group2","A3963FCT1PKKOH",430529,"{""Q0"":""3""}","low_entitlement",7,"urgency","modal",3,"Male",22,"low","urgency",-1.25257419745609,"modal"
"459",3,2041,"","survey-likert",3,19172,"0.0-3.0",27495,"group2","A3963FCT1PKKOH",430529,"{""Q0"":""2""}","high_entitlement",8,"urgency","wonder",2,"Male",22,"high","urgency",-2.25257419745609,"embedded modal"
"460",17,1242,"","survey-likert",17,50089,"0.0-17.0",27495,"group2","A3963FCT1PKKOH",430529,"{""Q0"":""4""}","low_entitlement",8,"urgency","wonder",4,"Male",22,"low","urgency",-0.252574197456087,"embedded modal"
"461",9,12410,"","survey-likert",9,95895,"0.0-9.0",28767,"group1","",869989,"{""Q0"":""4""}","high_entitlement",1,"interaction","direct",4,"Male",29,"high","interaction",-0.252574197456087,"direct"
"462",18,6491,"","survey-likert",18,162674,"0.0-18.0",28767,"group1","",869989,"{""Q0"":""3""}","low_entitlement",1,"interaction","direct",3,"Male",29,"low","interaction",-1.25257419745609,"direct"
"463",3,11684,"","survey-likert",3,39163,"0.0-3.0",28767,"group1","",869989,"{""Q0"":""6""}","high_entitlement",2,"interaction","modal",6,"Male",29,"high","interaction",1.74742580254391,"modal"
"464",16,6321,"","survey-likert",16,150116,"0.0-16.0",28767,"group1","",869989,"{""Q0"":""4""}","low_entitlement",2,"interaction","modal",4,"Male",29,"low","interaction",-0.252574197456087,"modal"
"465",15,5382,"","survey-likert",15,142789,"0.0-15.0",28767,"group1","",869989,"{""Q0"":""6""}","low_entitlement",3,"relationship","wonder",6,"Male",29,"low","relationship",1.74742580254391,"embedded modal"
"466",19,8597,"","survey-likert",19,172277,"0.0-19.0",28767,"group1","",869989,"{""Q0"":""6""}","high_entitlement",3,"relationship","wonder",6,"Male",29,"high","relationship",1.74742580254391,"embedded modal"
"467",2,8865,"","survey-likert",2,26368,"0.0-2.0",28767,"group1","",869989,"{""Q0"":""6""}","high_entitlement",4,"relationship","indirect",6,"Male",29,"high","relationship",1.74742580254391,"indirect"
"468",8,10237,"","survey-likert",8,81943,"0.0-8.0",28767,"group1","",869989,"{""Q0"":""3""}","low_entitlement",4,"relationship","indirect",3,"Male",29,"low","relationship",-1.25257419745609,"indirect"
"469",4,6749,"","survey-likert",4,46917,"0.0-4.0",28767,"group1","",869989,"{""Q0"":""6""}","high_entitlement",5,"institution","direct",6,"Male",29,"high","institution",1.74742580254391,"direct"
"470",12,10681,"","survey-likert",12,119698,"0.0-12.0",28767,"group1","",869989,"{""Q0"":""3""}","low_entitlement",5,"institution","direct",3,"Male",29,"low","institution",-1.25257419745609,"direct"
"471",11,4638,"","survey-likert",11,108013,"0.0-11.0",28767,"group1","",869989,"{""Q0"":""4""}","low_entitlement",6,"institution","modal",4,"Male",29,"low","institution",-0.252574197456087,"modal"
"472",14,8388,"","survey-likert",14,136402,"0.0-14.0",28767,"group1","",869989,"{""Q0"":""6""}","high_entitlement",6,"institution","modal",6,"Male",29,"high","institution",1.74742580254391,"modal"
"473",7,6717,"","survey-likert",7,70699,"0.0-7.0",28767,"group1","",869989,"{""Q0"":""6""}","high_entitlement",7,"urgency","wonder",6,"Male",29,"high","urgency",1.74742580254391,"embedded modal"
"474",13,6309,"","survey-likert",13,127010,"0.0-13.0",28767,"group1","",869989,"{""Q0"":""6""}","low_entitlement",7,"urgency","wonder",6,"Male",29,"low","urgency",1.74742580254391,"embedded modal"
"475",5,7795,"","survey-likert",5,55717,"0.0-5.0",28767,"group1","",869989,"{""Q0"":""6""}","high_entitlement",8,"urgency","indirect",6,"Male",29,"high","urgency",1.74742580254391,"indirect"
"476",10,5472,"","survey-likert",10,102372,"0.0-10.0",28767,"group1","",869989,"{""Q0"":""4""}","low_entitlement",8,"urgency","indirect",4,"Male",29,"low","urgency",-0.252574197456087,"indirect"
"477",11,6898,"","survey-likert",11,486345,"0.0-11.0",28898,"group1","",459326,"{""Q0"":""0""}","low_entitlement",1,"interaction","direct",0,"Female",60,"low","interaction",-4.25257419745609,"direct"
"478",6,8866,"","survey-likert",6,451320,"0.0-6.0",28898,"group1","",459326,"{""Q0"":""6""}","high_entitlement",2,"interaction","modal",6,"Female",60,"high","interaction",1.74742580254391,"modal"
"479",15,6584,"","survey-likert",15,518248,"0.0-15.0",28898,"group1","",459326,"{""Q0"":""6""}","low_entitlement",2,"interaction","modal",6,"Female",60,"low","interaction",1.74742580254391,"modal"
"480",9,4089,"","survey-likert",9,469680,"0.0-9.0",28898,"group1","",459326,"{""Q0"":""6""}","high_entitlement",3,"relationship","wonder",6,"Female",60,"high","relationship",1.74742580254391,"embedded modal"
"481",10,7754,"","survey-likert",10,478440,"0.0-10.0",28898,"group1","",459326,"{""Q0"":""6""}","low_entitlement",3,"relationship","wonder",6,"Female",60,"low","relationship",1.74742580254391,"embedded modal"
"482",7,7132,"","survey-likert",7,459464,"0.0-7.0",28898,"group1","",459326,"{""Q0"":""3""}","high_entitlement",4,"relationship","indirect",3,"Female",60,"high","relationship",-1.25257419745609,"indirect"
"483",13,6874,"","survey-likert",13,502416,"0.0-13.0",28898,"group1","",459326,"{""Q0"":""4""}","low_entitlement",4,"relationship","indirect",4,"Female",60,"low","relationship",-0.252574197456087,"indirect"
"484",12,7186,"","survey-likert",12,494536,"0.0-12.0",28898,"group1","",459326,"{""Q0"":""5""}","high_entitlement",5,"institution","direct",5,"Female",60,"high","institution",0.747425802543913,"direct"
"485",19,7198,"","survey-likert",19,548808,"0.0-19.0",28898,"group1","",459326,"{""Q0"":""2""}","low_entitlement",5,"institution","direct",2,"Female",60,"low","institution",-2.25257419745609,"direct"
"486",4,6799,"","survey-likert",4,435209,"0.0-4.0",28898,"group1","",459326,"{""Q0"":""5""}","high_entitlement",6,"institution","modal",5,"Female",60,"high","institution",0.747425802543913,"modal"
"487",17,6050,"","survey-likert",17,532975,"0.0-17.0",28898,"group1","",459326,"{""Q0"":""4""}","low_entitlement",6,"institution","modal",4,"Female",60,"low","institution",-0.252574197456087,"modal"
"488",16,6667,"","survey-likert",16,525919,"0.0-16.0",28898,"group1","",459326,"{""Q0"":""6""}","low_entitlement",7,"urgency","wonder",6,"Female",60,"low","urgency",1.74742580254391,"embedded modal"
"489",18,6609,"","survey-likert",18,540593,"0.0-18.0",28898,"group1","",459326,"{""Q0"":""6""}","high_entitlement",7,"urgency","wonder",6,"Female",60,"high","urgency",1.74742580254391,"embedded modal"
"490",3,7065,"","survey-likert",3,427404,"0.0-3.0",28898,"group1","",459326,"{""Q0"":""3""}","low_entitlement",8,"urgency","indirect",3,"Female",60,"low","urgency",-1.25257419745609,"indirect"
"491",14,7232,"","survey-likert",14,510656,"0.0-14.0",28898,"group1","",459326,"{""Q0"":""4""}","high_entitlement",8,"urgency","indirect",4,"Female",60,"high","urgency",-0.252574197456087,"indirect"
"492",10,13967,"","survey-likert",10,265079,"0.0-10.0",29160,"group2","A13PXTFOXDCKBF",610818,"{""Q0"":""4""}","low_entitlement",1,"interaction","indirect",4,"Male",32,"low","interaction",-0.252574197456087,"indirect"
"493",19,22228,"","survey-likert",19,445111,"0.0-19.0",29160,"group2","A13PXTFOXDCKBF",610818,"{""Q0"":""4""}","high_entitlement",1,"interaction","indirect",4,"Male",32,"high","interaction",-0.252574197456087,"indirect"
"494",11,6625,"","survey-likert",11,272713,"0.0-11.0",29160,"group2","A13PXTFOXDCKBF",610818,"{""Q0"":""4""}","low_entitlement",2,"interaction","direct",4,"Male",32,"low","interaction",-0.252574197456087,"direct"
"495",17,13184,"","survey-likert",17,408158,"0.0-17.0",29160,"group2","A13PXTFOXDCKBF",610818,"{""Q0"":""4""}","high_entitlement",2,"interaction","direct",4,"Male",32,"high","interaction",-0.252574197456087,"direct"
"496",5,8743,"","survey-likert",5,206888,"0.0-5.0",29160,"group2","A13PXTFOXDCKBF",610818,"{""Q0"":""4""}","high_entitlement",3,"relationship","modal",4,"Male",32,"high","relationship",-0.252574197456087,"modal"
"497",8,13864,"","survey-likert",8,236047,"0.0-8.0",29160,"group2","A13PXTFOXDCKBF",610818,"{""Q0"":""4""}","low_entitlement",3,"relationship","modal",4,"Male",32,"low","relationship",-0.252574197456087,"modal"
"498",9,13047,"","survey-likert",9,250103,"0.0-9.0",29160,"group2","A13PXTFOXDCKBF",610818,"{""Q0"":""5""}","high_entitlement",4,"relationship","wonder",5,"Male",32,"high","relationship",0.747425802543913,"embedded modal"
