"","X1","rt","url","trial_type","trial_index","time_elapsed","internal_node_id","subject","group","surveyCode","view_history","responses","stimType","stimNum","type","power_norm","distance_norm","imposition_norm","entitlement_norm","Gender","Native_Speaker","Age"
"1",2,24181,NA,"survey-multi-choice",2,48485,"0.0-2.0",10080,"group2",723592,NA,"{""Q0"":""7"",""Q1"":""2"",""Q2"":""2"",""Q3"":""6""}","high_entitlement",6,"institution",7,2,2,6,"Female","Yes","64"
"2",3,19543,NA,"survey-multi-choice",3,68035,"0.0-3.0",10080,"group2",723592,NA,"{""Q0"":""7"",""Q1"":""4"",""Q2"":""3"",""Q3"":""6""}","low_entitlement",3,"relationship",7,4,3,6,"Female","Yes","64"
"3",4,20410,NA,"survey-multi-choice",4,88453,"0.0-4.0",10080,"group2",723592,NA,"{""Q0"":""6"",""Q1"":""6"",""Q2"":""5"",""Q3"":""5""}","low_entitlement",1,"interaction",6,6,5,5,"Female","Yes","64"
"4",5,14102,NA,"survey-multi-choice",5,102560,"0.0-5.0",10080,"group2",723592,NA,"{""Q0"":""6"",""Q1"":""7"",""Q2"":""6"",""Q3"":""7""}","high_entitlement",4,"relationship",6,7,6,7,"Female","Yes","64"
"5",6,12748,NA,"survey-multi-choice",6,115316,"0.0-6.0",10080,"group2",723592,NA,"{""Q0"":""6"",""Q1"":""6"",""Q2"":""5"",""Q3"":""7""}","high_entitlement",2,"interaction",6,6,5,7,"Female","Yes","64"
"6",7,14805,NA,"survey-multi-choice",7,130129,"0.0-7.0",10080,"group2",723592,NA,"{""Q0"":""5"",""Q1"":""5"",""Q2"":""5"",""Q3"":""6""}","low_entitlement",9,"urgency",5,5,5,6,"Female","Yes","64"
"7",8,15807,NA,"survey-multi-choice",8,145943,"0.0-8.0",10080,"group2",723592,NA,"{""Q0"":""7"",""Q1"":""1"",""Q2"":""6"",""Q3"":""6""}","low_entitlement",5,"institution",7,1,6,6,"Female","Yes","64"
"8",9,17402,NA,"survey-multi-choice",9,163352,"0.0-9.0",10080,"group2",723592,NA,"{""Q0"":""6"",""Q1"":""6"",""Q2"":""6"",""Q3"":""7""}","high_entitlement",8,"urgency",6,6,6,7,"Female","Yes","64"
"9",10,18924,NA,"survey-multi-choice",10,182283,"0.0-10.0",10080,"group2",723592,NA,"{""Q0"":""7"",""Q1"":""1"",""Q2"":""1"",""Q3"":""7""}","high_entitlement",10,"institution",7,1,1,7,"Female","Yes","64"
"10",11,15815,NA,"survey-multi-choice",11,198107,"0.0-11.0",10080,"group2",723592,NA,"{""Q0"":""5"",""Q1"":""6"",""Q2"":""6"",""Q3"":""6""}","low_entitlement",7,"urgency",5,6,6,6,"Female","Yes","64"
"11",17,23887,NA,"survey-multi-choice",2,78290,"0.0-2.0",1077,"group2",708927,NA,"{""Q0"":""6"",""Q1"":""5"",""Q2"":""6"",""Q3"":""5""}","high_entitlement",6,"institution",6,5,6,5,"Male","Yes","31"
"12",18,12745,NA,"survey-multi-choice",3,91049,"0.0-3.0",1077,"group2",708927,NA,"{""Q0"":""6"",""Q1"":""5"",""Q2"":""4"",""Q3"":""5""}","low_entitlement",9,"urgency",6,5,4,5,"Male","Yes","31"
"13",19,6129,NA,"survey-multi-choice",4,97202,"0.0-4.0",1077,"group2",708927,NA,"{""Q0"":""6"",""Q1"":""5"",""Q2"":""5"",""Q3"":""5""}","low_entitlement",3,"relationship",6,5,5,5,"Male","Yes","31"
"14",20,4976,NA,"survey-multi-choice",5,102195,"0.0-5.0",1077,"group2",708927,NA,"{""Q0"":""4"",""Q1"":""5"",""Q2"":""6"",""Q3"":""6""}","low_entitlement",5,"institution",4,5,6,6,"Male","Yes","31"
"15",21,8352,NA,"survey-multi-choice",6,110562,"0.0-6.0",1077,"group2",708927,NA,"{""Q0"":""5"",""Q1"":""4"",""Q2"":""5"",""Q3"":""5""}","high_entitlement",10,"institution",5,4,5,5,"Male","Yes","31"
"16",22,8010,NA,"survey-multi-choice",7,118596,"0.0-7.0",1077,"group2",708927,NA,"{""Q0"":""6"",""Q1"":""5"",""Q2"":""5"",""Q3"":""4""}","low_entitlement",7,"urgency",6,5,5,4,"Male","Yes","31"
"17",23,11311,NA,"survey-multi-choice",8,129939,"0.0-8.0",1077,"group2",708927,NA,"{""Q0"":""4"",""Q1"":""4"",""Q2"":""6"",""Q3"":""6""}","high_entitlement",4,"relationship",4,4,6,6,"Male","Yes","31"
"18",24,4551,NA,"survey-multi-choice",9,134507,"0.0-9.0",1077,"group2",708927,NA,"{""Q0"":""5"",""Q1"":""5"",""Q2"":""5"",""Q3"":""6""}","low_entitlement",1,"interaction",5,5,5,6,"Male","Yes","31"
"19",25,7399,NA,"survey-multi-choice",10,141922,"0.0-10.0",1077,"group2",708927,NA,"{""Q0"":""6"",""Q1"":""6"",""Q2"":""6"",""Q3"":""5""}","high_entitlement",8,"urgency",6,6,6,5,"Male","Yes","31"
"20",26,4648,NA,"survey-multi-choice",11,146586,"0.0-11.0",1077,"group2",708927,NA,"{""Q0"":""5"",""Q1"":""5"",""Q2"":""5"",""Q3"":""6""}","high_entitlement",2,"interaction",5,5,5,6,"Male","Yes","31"
"21",32,7474,NA,"survey-multi-choice",2,31120,"0.0-2.0",11403,"group1",913909,NA,"{""Q0"":""5"",""Q1"":""6"",""Q2"":""7"",""Q3"":""6""}","high_entitlement",5,"institution",5,6,7,6,"Male","Yes","26"
"22",33,4768,NA,"survey-multi-choice",3,35904,"0.0-3.0",11403,"group1",913909,NA,"{""Q0"":""5"",""Q1"":""6"",""Q2"":""6"",""Q3"":""7""}","high_entitlement",7,"urgency",5,6,6,7,"Male","Yes","26"
"23",34,4825,NA,"survey-multi-choice",4,40743,"0.0-4.0",11403,"group1",913909,NA,"{""Q0"":""6"",""Q1"":""5"",""Q2"":""6"",""Q3"":""7""}","low_entitlement",2,"interaction",6,5,6,7,"Male","Yes","26"
"24",35,6183,NA,"survey-multi-choice",5,46936,"0.0-5.0",11403,"group1",913909,NA,"{""Q0"":""7"",""Q1"":""6"",""Q2"":""6"",""Q3"":""7""}","high_entitlement",9,"urgency",7,6,6,7,"Male","Yes","26"
"25",36,8121,NA,"survey-multi-choice",6,55071,"0.0-6.0",11403,"group1",913909,NA,"{""Q0"":""6"",""Q1"":""6"",""Q2"":""5"",""Q3"":""6""}","high_entitlement",1,"interaction",6,6,5,6,"Male","Yes","26"
"26",37,4744,NA,"survey-multi-choice",7,59831,"0.0-7.0",11403,"group1",913909,NA,"{""Q0"":""7"",""Q1"":""6"",""Q2"":""6"",""Q3"":""7""}","low_entitlement",8,"urgency",7,6,6,7,"Male","Yes","26"
"27",38,4745,NA,"survey-multi-choice",8,64592,"0.0-8.0",11403,"group1",913909,NA,"{""Q0"":""6"",""Q1"":""6"",""Q2"":""6"",""Q3"":""6""}","low_entitlement",4,"relationship",6,6,6,6,"Male","Yes","26"
"28",39,4784,NA,"survey-multi-choice",9,69392,"0.0-9.0",11403,"group1",913909,NA,"{""Q0"":""6"",""Q1"":""6"",""Q2"":""6"",""Q3"":""7""}","high_entitlement",3,"relationship",6,6,6,7,"Male","Yes","26"
"29",40,5639,NA,"survey-multi-choice",10,75047,"0.0-10.0",11403,"group1",913909,NA,"{""Q0"":""6"",""Q1"":""6"",""Q2"":""7"",""Q3"":""6""}","low_entitlement",10,"institution",6,6,7,6,"Male","Yes","26"
"30",41,4016,NA,"survey-multi-choice",11,79080,"0.0-11.0",11403,"group1",913909,NA,"{""Q0"":""6"",""Q1"":""6"",""Q2"":""7"",""Q3"":""6""}","low_entitlement",6,"institution",6,6,7,6,"Male","Yes","26"
"31",47,124703,NA,"survey-multi-choice",2,624897,"0.0-2.0",12881,"group1",914933,NA,"{""Q0"":""6"",""Q1"":""1"",""Q2"":""7"",""Q3"":""1""}","high_entitlement",5,"institution",6,1,7,1,"Male","Yes","28"
"32",48,18701,NA,"survey-multi-choice",3,643609,"0.0-3.0",12881,"group1",914933,NA,"{""Q0"":""5"",""Q1"":""1"",""Q2"":""2"",""Q3"":""6""}","low_entitlement",10,"institution",5,1,2,6,"Male","Yes","28"
"33",49,41190,NA,"survey-multi-choice",4,684809,"0.0-4.0",12881,"group1",914933,NA,"{""Q0"":""2"",""Q1"":""6"",""Q2"":""4"",""Q3"":""5""}","high_entitlement",9,"urgency",2,6,4,5,"Male","Yes","28"
"34",50,13554,NA,"survey-multi-choice",5,698374,"0.0-5.0",12881,"group1",914933,NA,"{""Q0"":""2"",""Q1"":""6"",""Q2"":""3"",""Q3"":""3""}","low_entitlement",8,"urgency",2,6,3,3,"Male","Yes","28"
"35",51,28126,NA,"survey-multi-choice",6,726511,"0.0-6.0",12881,"group1",914933,NA,"{""Q0"":""4"",""Q1"":""2"",""Q2"":""2"",""Q3"":""6""}","low_entitlement",6,"institution",4,2,2,6,"Male","Yes","28"
"36",52,31439,NA,"survey-multi-choice",7,757965,"0.0-7.0",12881,"group1",914933,NA,"{""Q0"":""7"",""Q1"":""4"",""Q2"":""3"",""Q3"":""6""}","high_entitlement",3,"relationship",7,4,3,6,"Male","Yes","28"
"37",53,62371,NA,"survey-multi-choice",8,820351,"0.0-8.0",12881,"group1",914933,NA,"{""Q0"":""4"",""Q1"":""5"",""Q2"":""5"",""Q3"":""2""}","high_entitlement",1,"interaction",4,5,5,2,"Male","Yes","28"
"38",54,27700,NA,"survey-multi-choice",9,848063,"0.0-9.0",12881,"group1",914933,NA,"{""Q0"":""2"",""Q1"":""3"",""Q2"":""6"",""Q3"":""3""}","low_entitlement",4,"relationship",2,3,6,3,"Male","Yes","28"
"39",55,47825,NA,"survey-multi-choice",10,895900,"0.0-10.0",12881,"group1",914933,NA,"{""Q0"":""3"",""Q1"":""6"",""Q2"":""6"",""Q3"":""3""}","low_entitlement",2,"interaction",3,6,6,3,"Male","Yes","28"
"40",56,11453,NA,"survey-multi-choice",11,907365,"0.0-11.0",12881,"group1",914933,NA,"{""Q0"":""2"",""Q1"":""4"",""Q2"":""5"",""Q3"":""2""}","high_entitlement",7,"urgency",2,4,5,2,"Male","Yes","28"
"41",62,20151,NA,"survey-multi-choice",2,51911,"0.0-2.0",14689,"group1",278361,NA,"{""Q0"":""4"",""Q1"":""1"",""Q2"":""2"",""Q3"":""6""}","low_entitlement",10,"institution",4,1,2,6,"Male","Yes","34"
"42",63,55805,NA,"survey-multi-choice",3,107721,"0.0-3.0",14689,"group1",278361,NA,"{""Q0"":""4"",""Q1"":""4"",""Q2"":""2"",""Q3"":""7""}","high_entitlement",1,"interaction",4,4,2,7,"Male","Yes","34"
"43",64,28154,NA,"survey-multi-choice",4,135881,"0.0-4.0",14689,"group1",278361,NA,"{""Q0"":""6"",""Q1"":""3"",""Q2"":"""",""Q3"":""2""}","low_entitlement",4,"relationship",6,3,NA,2,"Male","Yes","34"
"44",65,14559,NA,"survey-multi-choice",5,150447,"0.0-5.0",14689,"group1",278361,NA,"{""Q0"":""6"",""Q1"":""7"",""Q2"":""3"",""Q3"":""7""}","high_entitlement",9,"urgency",6,7,3,7,"Male","Yes","34"
"45",66,12996,NA,"survey-multi-choice",6,163460,"0.0-6.0",14689,"group1",278361,NA,"{""Q0"":""7"",""Q1"":""4"",""Q2"":""4"",""Q3"":""4""}","low_entitlement",8,"urgency",7,4,4,4,"Male","Yes","34"
"46",67,14588,NA,"survey-multi-choice",7,178053,"0.0-7.0",14689,"group1",278361,NA,"{""Q0"":""6"",""Q1"":""4"",""Q2"":""6"",""Q3"":""2""}","low_entitlement",2,"interaction",6,4,6,2,"Male","Yes","34"
"47",68,15563,NA,"survey-multi-choice",8,193620,"0.0-8.0",14689,"group1",278361,NA,"{""Q0"":""6"",""Q1"":""6"",""Q2"":""5"",""Q3"":""3""}","high_entitlement",7,"urgency",6,6,5,3,"Male","Yes","34"
"48",69,80143,NA,"survey-multi-choice",9,273768,"0.0-9.0",14689,"group1",278361,NA,"{""Q0"":""2"",""Q1"":""3"",""Q2"":""2"",""Q3"":""6""}","high_entitlement",3,"relationship",2,3,2,6,"Male","Yes","34"
"49",70,58639,NA,"survey-multi-choice",10,332415,"0.0-10.0",14689,"group1",278361,NA,"{""Q0"":""7"",""Q1"":""1"",""Q2"":""5"",""Q3"":""7""}","high_entitlement",5,"institution",7,1,5,7,"Male","Yes","34"
"50",71,14317,NA,"survey-multi-choice",11,346736,"0.0-11.0",14689,"group1",278361,NA,"{""Q0"":""5"",""Q1"":""1"",""Q2"":""1"",""Q3"":""6""}","low_entitlement",6,"institution",5,1,1,6,"Male","Yes","34"
"51",77,72791,NA,"survey-multi-choice",2,145050,"0.0-2.0",16250,"group2",537620,NA,"{""Q0"":""5"",""Q1"":""4"",""Q2"":""5"",""Q3"":""3""}","low_entitlement",1,"interaction",5,4,5,3,"Female","Yes","64"
"52",78,77895,NA,"survey-multi-choice",3,222950,"0.0-3.0",16250,"group2",537620,NA,"{""Q0"":""4"",""Q1"":""7"",""Q2"":""2"",""Q3"":""7""}","high_entitlement",4,"relationship",4,7,2,7,"Female","Yes","64"
"53",79,34796,NA,"survey-multi-choice",4,257752,"0.0-4.0",16250,"group2",537620,NA,"{""Q0"":""7"",""Q1"":""1"",""Q2"":""7"",""Q3"":""1""}","low_entitlement",5,"institution",7,1,7,1,"Female","Yes","64"
"54",80,28094,NA,"survey-multi-choice",5,285851,"0.0-5.0",16250,"group2",537620,NA,"{""Q0"":""7"",""Q1"":""5"",""Q2"":""5"",""Q3"":""4""}","low_entitlement",7,"urgency",7,5,5,4,"Female","Yes","64"
"55",81,26577,NA,"survey-multi-choice",6,312433,"0.0-6.0",16250,"group2",537620,NA,"{""Q0"":""5"",""Q1"":""6"",""Q2"":""2"",""Q3"":""6""}","low_entitlement",9,"urgency",5,6,2,6,"Female","Yes","64"
"56",82,30169,NA,"survey-multi-choice",7,342608,"0.0-7.0",16250,"group2",537620,NA,"{""Q0"":""7"",""Q1"":""5"",""Q2"":""6"",""Q3"":""6""}","high_entitlement",2,"interaction",7,5,6,6,"Female","Yes","64"
"57",83,43511,NA,"survey-multi-choice",8,386123,"0.0-8.0",16250,"group2",537620,NA,"{""Q0"":""7"",""Q1"":""2"",""Q2"":""6"",""Q3"":""4""}","low_entitlement",3,"relationship",7,2,6,4,"Female","Yes","64"
"58",84,31216,NA,"survey-multi-choice",9,417344,"0.0-9.0",16250,"group2",537620,NA,"{""Q0"":""7"",""Q1"":""1"",""Q2"":""2"",""Q3"":""7""}","high_entitlement",10,"institution",7,1,2,7,"Female","Yes","64"
"59",85,30164,NA,"survey-multi-choice",10,447513,"0.0-10.0",16250,"group2",537620,NA,"{""Q0"":""7"",""Q1"":""5"",""Q2"":""2"",""Q3"":""7""}","high_entitlement",8,"urgency",7,5,2,7,"Female","Yes","64"
"60",86,25513,NA,"survey-multi-choice",11,473033,"0.0-11.0",16250,"group2",537620,NA,"{""Q0"":""7"",""Q1"":""1"",""Q2"":""1"",""Q3"":""7""}","high_entitlement",6,"institution",7,1,1,7,"Female","Yes","64"
"61",92,47668,NA,"survey-multi-choice",2,124332,"0.0-2.0",18500,"group1",568710,NA,"{""Q0"":""7"",""Q1"":""1"",""Q2"":""1"",""Q3"":""1""}","low_entitlement",10,"institution",7,1,1,1,"Female","Yes","26"
"62",93,55555,NA,"survey-multi-choice",3,179892,"0.0-3.0",18500,"group1",568710,NA,"{""Q0"":""7"",""Q1"":""7"",""Q2"":""2"",""Q3"":""1""}","high_entitlement",9,"urgency",7,7,2,1,"Female","Yes","26"
"63",94,61970,NA,"survey-multi-choice",4,241869,"0.0-4.0",18500,"group1",568710,NA,"{""Q0"":""7"",""Q1"":""1"",""Q2"":""1"",""Q3"":""7""}","high_entitlement",5,"institution",7,1,1,7,"Female","Yes","26"
"64",95,79884,NA,"survey-multi-choice",5,321757,"0.0-5.0",18500,"group1",568710,NA,"{""Q0"":""7"",""Q1"":""1"",""Q2"":""3"",""Q3"":""3""}","high_entitlement",3,"relationship",7,1,3,3,"Female","Yes","26"
"65",96,65932,NA,"survey-multi-choice",6,387694,"0.0-6.0",18500,"group1",568710,NA,"{""Q0"":""7"",""Q1"":""1"",""Q2"":""7"",""Q3"":""1""}","low_entitlement",4,"relationship",7,1,7,1,"Female","Yes","26"
"66",97,69980,NA,"survey-multi-choice",7,457679,"0.0-7.0",18500,"group1",568710,NA,"{""Q0"":""7"",""Q1"":""3"",""Q2"":""3"",""Q3"":""1""}","high_entitlement",1,"interaction",7,3,3,1,"Female","Yes","26"
"67",98,30035,NA,"survey-multi-choice",8,487718,"0.0-8.0",18500,"group1",568710,NA,"{""Q0"":"""",""Q1"":""1"",""Q2"":""1"",""Q3"":""1""}","low_entitlement",6,"institution",NA,1,1,1,"Female","Yes","26"
"68",99,15524,NA,"survey-multi-choice",9,503246,"0.0-9.0",18500,"group1",568710,NA,"{""Q0"":""7"",""Q1"":""7"",""Q2"":""7"",""Q3"":""1""}","high_entitlement",7,"urgency",7,7,7,1,"Female","Yes","26"
"69",100,29732,NA,"survey-multi-choice",10,532982,"0.0-10.0",18500,"group1",568710,NA,"{""Q0"":""7"",""Q1"":""3"",""Q2"":""7"",""Q3"":""2""}","low_entitlement",2,"interaction",7,3,7,2,"Female","Yes","26"
"70",101,13115,NA,"survey-multi-choice",11,546102,"0.0-11.0",18500,"group1",568710,NA,"{""Q0"":""7"",""Q1"":""2"",""Q2"":""7"",""Q3"":""1""}","low_entitlement",8,"urgency",7,2,7,1,"Female","Yes","26"
"71",107,14015,NA,"survey-multi-choice",2,32137,"0.0-2.0",19510,"group1",479887,NA,"{""Q0"":""1"",""Q1"":""4"",""Q2"":""1"",""Q3"":""7""}","high_entitlement",3,"relationship",1,4,1,7,"Female","Yes","31"
"72",108,10324,NA,"survey-multi-choice",3,42467,"0.0-3.0",19510,"group1",479887,NA,"{""Q0"":""1"",""Q1"":""1"",""Q2"":""1"",""Q3"":""7""}","low_entitlement",10,"institution",1,1,1,7,"Female","Yes","31"
"73",109,9561,NA,"survey-multi-choice",4,52034,"0.0-4.0",19510,"group1",479887,NA,"{""Q0"":""2"",""Q1"":""1"",""Q2"":""1"",""Q3"":""7""}","low_entitlement",6,"institution",2,1,1,7,"Female","Yes","31"
"74",110,13427,NA,"survey-multi-choice",5,65467,"0.0-5.0",19510,"group1",479887,NA,"{""Q0"":""4"",""Q1"":""7"",""Q2"":""1"",""Q3"":""7""}","high_entitlement",9,"urgency",4,7,1,7,"Female","Yes","31"
"75",111,24492,NA,"survey-multi-choice",6,89966,"0.0-6.0",19510,"group1",479887,NA,"{""Q0"":""4"",""Q1"":""6"",""Q2"":""1"",""Q3"":""7""}","high_entitlement",1,"interaction",4,6,1,7,"Female","Yes","31"
"76",112,11646,NA,"survey-multi-choice",7,101618,"0.0-7.0",19510,"group1",479887,NA,"{""Q0"":""7"",""Q1"":""4"",""Q2"":""5"",""Q3"":""4""}","low_entitlement",4,"relationship",7,4,5,4,"Female","Yes","31"
"77",113,11272,NA,"survey-multi-choice",8,112896,"0.0-8.0",19510,"group1",479887,NA,"{""Q0"":""4"",""Q1"":""7"",""Q2"":""7"",""Q3"":""6""}","high_entitlement",7,"urgency",4,7,7,6,"Female","Yes","31"
"78",114,11952,NA,"survey-multi-choice",9,124854,"0.0-9.0",19510,"group1",479887,NA,"{""Q0"":""4"",""Q1"":""7"",""Q2"":""4"",""Q3"":""3""}","low_entitlement",8,"urgency",4,7,4,3,"Female","Yes","31"
"79",115,7742,NA,"survey-multi-choice",10,132602,"0.0-10.0",19510,"group1",479887,NA,"{""Q0"":""1"",""Q1"":""1"",""Q2"":""1"",""Q3"":""7""}","high_entitlement",5,"institution",1,1,1,7,"Female","Yes","31"
"80",116,14598,NA,"survey-multi-choice",11,147206,"0.0-11.0",19510,"group1",479887,NA,"{""Q0"":""4"",""Q1"":""1"",""Q2"":""7"",""Q3"":""1""}","low_entitlement",2,"interaction",4,1,7,1,"Female","Yes","31"
"81",122,17316,NA,"survey-multi-choice",2,24605,"0.0-2.0",19743,"group1",247578,NA,"{""Q0"":""3"",""Q1"":""4"",""Q2"":""2"",""Q3"":""3""}","high_entitlement",3,"relationship",3,4,2,3,"Male","Yes","33"
"82",123,5938,NA,"survey-multi-choice",3,30549,"0.0-3.0",19743,"group1",247578,NA,"{""Q0"":""5"",""Q1"":""4"",""Q2"":""3"",""Q3"":""2""}","low_entitlement",6,"institution",5,4,3,2,"Male","Yes","33"
"83",124,11906,NA,"survey-multi-choice",4,42463,"0.0-4.0",19743,"group1",247578,NA,"{""Q0"":""6"",""Q1"":""4"",""Q2"":""5"",""Q3"":""5""}","high_entitlement",7,"urgency",6,4,5,5,"Male","Yes","33"
"84",125,6569,NA,"survey-multi-choice",5,49037,"0.0-5.0",19743,"group1",247578,NA,"{""Q0"":""4"",""Q1"":""4"",""Q2"":""4"",""Q3"":""3""}","high_entitlement",1,"interaction",4,4,4,3,"Male","Yes","33"
"85",126,3737,NA,"survey-multi-choice",6,52781,"0.0-6.0",19743,"group1",247578,NA,"{""Q0"":""4"",""Q1"":""5"",""Q2"":""3"",""Q3"":""4""}","low_entitlement",8,"urgency",4,5,3,4,"Male","Yes","33"
"86",127,11661,NA,"survey-multi-choice",7,64447,"0.0-7.0",19743,"group1",247578,NA,"{""Q0"":""6"",""Q1"":""3"",""Q2"":""5"",""Q3"":""3""}","low_entitlement",2,"interaction",6,3,5,3,"Male","Yes","33"
"87",128,54370,NA,"survey-multi-choice",8,118826,"0.0-8.0",19743,"group1",247578,NA,"{""Q0"":""4"",""Q1"":""5"",""Q2"":""3"",""Q3"":""6""}","high_entitlement",9,"urgency",4,5,3,6,"Male","Yes","33"
"88",129,7780,NA,"survey-multi-choice",9,126611,"0.0-9.0",19743,"group1",247578,NA,"{""Q0"":""4"",""Q1"":""3"",""Q2"":""4"",""Q3"":""3""}","low_entitlement",4,"relationship",4,3,4,3,"Male","Yes","33"
"89",130,6374,NA,"survey-multi-choice",10,132995,"0.0-10.0",19743,"group1",247578,NA,"{""Q0"":""4"",""Q1"":""2"",""Q2"":""3"",""Q3"":""5""}","high_entitlement",5,"institution",4,2,3,5,"Male","Yes","33"
"90",131,14046,NA,"survey-multi-choice",11,147048,"0.0-11.0",19743,"group1",247578,NA,"{""Q0"":""3"",""Q1"":""1"",""Q2"":""2"",""Q3"":""4""}","low_entitlement",10,"institution",3,1,2,4,"Male","Yes","33"
"91",137,17333,NA,"survey-multi-choice",2,34146,"0.0-2.0",20500,"group2",147244,NA,"{""Q0"":""5"",""Q1"":""5"",""Q2"":""4"",""Q3"":""5""}","low_entitlement",3,"relationship",5,5,4,5,"Male","Yes","25"
"92",138,31107,NA,"survey-multi-choice",3,65262,"0.0-3.0",20500,"group2",147244,NA,"{""Q0"":""6"",""Q1"":""6"",""Q2"":""4"",""Q3"":""7""}","high_entitlement",8,"urgency",6,6,4,7,"Male","Yes","25"
"93",139,45972,NA,"survey-multi-choice",4,111240,"0.0-4.0",20500,"group2",147244,NA,"{""Q0"":""5"",""Q1"":""1"",""Q2"":""4"",""Q3"":""7""}","high_entitlement",10,"institution",5,1,4,7,"Male","Yes","25"
"94",140,43295,NA,"survey-multi-choice",5,154541,"0.0-5.0",20500,"group2",147244,NA,"{""Q0"":""7"",""Q1"":""2"",""Q2"":""5"",""Q3"":""7""}","high_entitlement",6,"institution",7,2,5,7,"Male","Yes","25"
"95",141,9721,NA,"survey-multi-choice",6,164268,"0.0-6.0",20500,"group2",147244,NA,"{""Q0"":""6"",""Q1"":""7"",""Q2"":""6"",""Q3"":""7""}","high_entitlement",2,"interaction",6,7,6,7,"Male","Yes","25"
"96",142,10317,NA,"survey-multi-choice",7,174593,"0.0-7.0",20500,"group2",147244,NA,"{""Q0"":""5"",""Q1"":""6"",""Q2"":""3"",""Q3"":""7""}","low_entitlement",9,"urgency",5,6,3,7,"Male","Yes","25"
"97",143,10466,NA,"survey-multi-choice",8,185065,"0.0-8.0",20500,"group2",147244,NA,"{""Q0"":""4"",""Q1"":""7"",""Q2"":""6"",""Q3"":""6""}","high_entitlement",4,"relationship",4,7,6,6,"Male","Yes","25"
"98",144,23677,NA,"survey-multi-choice",9,208749,"0.0-9.0",20500,"group2",147244,NA,"{""Q0"":""6"",""Q1"":""5"",""Q2"":""7"",""Q3"":""5""}","low_entitlement",1,"interaction",6,5,7,5,"Male","Yes","25"
"99",145,8702,NA,"survey-multi-choice",10,217459,"0.0-10.0",20500,"group2",147244,NA,"{""Q0"":""6"",""Q1"":""7"",""Q2"":""5"",""Q3"":""6""}","low_entitlement",7,"urgency",6,7,5,6,"Male","Yes","25"
"100",146,13883,NA,"survey-multi-choice",11,231349,"0.0-11.0",20500,"group2",147244,NA,"{""Q0"":""5"",""Q1"":""2"",""Q2"":""4"",""Q3"":""6""}","low_entitlement",5,"institution",5,2,4,6,"Male","Yes","25"
"101",152,33384,NA,"survey-multi-choice",2,82597,"0.0-2.0",20909,"group2",83518,NA,"{""Q0"":""7"",""Q1"":""1"",""Q2"":""1"",""Q3"":""7""}","high_entitlement",6,"institution",7,1,1,7,"Female","Yes","30"
"102",153,29235,NA,"survey-multi-choice",3,111843,"0.0-3.0",20909,"group2",83518,NA,"{""Q0"":""7"",""Q1"":""5"",""Q2"":""2"",""Q3"":""7""}","high_entitlement",8,"urgency",7,5,2,7,"Female","Yes","30"
"103",154,28587,NA,"survey-multi-choice",4,140438,"0.0-4.0",20909,"group2",83518,NA,"{""Q0"":""6"",""Q1"":""4"",""Q2"":""6"",""Q3"":""2""}","low_entitlement",1,"interaction",6,4,6,2,"Female","Yes","30"
"104",155,21483,NA,"survey-multi-choice",5,161934,"0.0-5.0",20909,"group2",83518,NA,"{""Q0"":""4"",""Q1"":""6"",""Q2"":""5"",""Q3"":""1""}","low_entitlement",9,"urgency",4,6,5,1,"Female","Yes","30"
"105",156,19805,NA,"survey-multi-choice",6,181749,"0.0-6.0",20909,"group2",83518,NA,"{""Q0"":""5"",""Q1"":""7"",""Q2"":""6"",""Q3"":""6""}","high_entitlement",4,"relationship",5,7,6,6,"Female","Yes","30"
"106",157,21836,NA,"survey-multi-choice",7,203593,"0.0-7.0",20909,"group2",83518,NA,"{""Q0"":""7"",""Q1"":""5"",""Q2"":""7"",""Q3"":""4""}","high_entitlement",2,"interaction",7,5,7,4,"Female","Yes","30"
"107",158,28333,NA,"survey-multi-choice",8,231942,"0.0-8.0",20909,"group2",83518,NA,"{""Q0"":""7"",""Q1"":""1"",""Q2"":""6"",""Q3"":""2""}","low_entitlement",3,"relationship",7,1,6,2,"Female","Yes","30"
"108",159,24137,NA,"survey-multi-choice",9,256087,"0.0-9.0",20909,"group2",83518,NA,"{""Q0"":""4"",""Q1"":""5"",""Q2"":""6"",""Q3"":""3""}","low_entitlement",7,"urgency",4,5,6,3,"Female","Yes","30"
"109",160,21482,NA,"survey-multi-choice",10,277576,"0.0-10.0",20909,"group2",83518,NA,"{""Q0"":""5"",""Q1"":""1"",""Q2"":""1"",""Q3"":""7""}","high_entitlement",10,"institution",5,1,1,7,"Female","Yes","30"
"110",161,19302,NA,"survey-multi-choice",11,296886,"0.0-11.0",20909,"group2",83518,NA,"{""Q0"":""5"",""Q1"":""1"",""Q2"":""1"",""Q3"":""7""}","low_entitlement",5,"institution",5,1,1,7,"Female","Yes","30"
"111",167,16153,NA,"survey-multi-choice",2,36954,"0.0-2.0",21090,"group1",895115,NA,"{""Q0"":""6"",""Q1"":""7"",""Q2"":""6"",""Q3"":""7""}","high_entitlement",7,"urgency",6,7,6,7,"Male","Yes","28"
"112",168,10734,NA,"survey-multi-choice",3,47751,"0.0-3.0",21090,"group1",895115,NA,"{""Q0"":""6"",""Q1"":""7"",""Q2"":""6"",""Q3"":""7""}","low_entitlement",10,"institution",6,7,6,7,"Male","Yes","28"
"113",169,9446,NA,"survey-multi-choice",4,57270,"0.0-4.0",21090,"group1",895115,NA,"{""Q0"":""4"",""Q1"":""6"",""Q2"":""7"",""Q3"":""5""}","low_entitlement",2,"interaction",4,6,7,5,"Male","Yes","28"
"114",170,12300,NA,"survey-multi-choice",5,69637,"0.0-5.0",21090,"group1",895115,NA,"{""Q0"":""6"",""Q1"":""5"",""Q2"":""7"",""Q3"":""5""}","high_entitlement",1,"interaction",6,5,7,5,"Male","Yes","28"
"115",171,12161,NA,"survey-multi-choice",6,81875,"0.0-6.0",21090,"group1",895115,NA,"{""Q0"":""6"",""Q1"":""7"",""Q2"":""6"",""Q3"":""7""}","high_entitlement",5,"institution",6,7,6,7,"Male","Yes","28"
"116",172,10783,NA,"survey-multi-choice",7,92730,"0.0-7.0",21090,"group1",895115,NA,"{""Q0"":""6"",""Q1"":""7"",""Q2"":""5"",""Q3"":""6""}","low_entitlement",8,"urgency",6,7,5,6,"Male","Yes","28"
"117",173,6399,NA,"survey-multi-choice",8,99201,"0.0-8.0",21090,"group1",895115,NA,"{""Q0"":""6"",""Q1"":""7"",""Q2"":""6"",""Q3"":""7""}","low_entitlement",4,"relationship",6,7,6,7,"Male","Yes","28"
"118",174,9990,NA,"survey-multi-choice",9,109263,"0.0-9.0",21090,"group1",895115,NA,"{""Q0"":""7"",""Q1"":""6"",""Q2"":""7"",""Q3"":""6""}","high_entitlement",3,"relationship",7,6,7,6,"Male","Yes","28"
"119",175,6431,NA,"survey-multi-choice",10,115774,"0.0-10.0",21090,"group1",895115,NA,"{""Q0"":""5"",""Q1"":""6"",""Q2"":""5"",""Q3"":""7""}","high_entitlement",9,"urgency",5,6,5,7,"Male","Yes","28"
"120",176,8258,NA,"survey-multi-choice",11,124110,"0.0-11.0",21090,"group1",895115,NA,"{""Q0"":""7"",""Q1"":""6"",""Q2"":""7"",""Q3"":""6""}","low_entitlement",6,"institution",7,6,7,6,"Male","Yes","28"
"121",182,45027,NA,"survey-multi-choice",2,457879,"0.0-2.0",2218,"group1",533525,NA,"{""Q0"":""5"",""Q1"":""1"",""Q2"":""5"",""Q3"":""6""}","high_entitlement",5,"institution",5,1,5,6,"Male","Yes","36"
"122",183,15738,NA,"survey-multi-choice",3,473662,"0.0-3.0",2218,"group1",533525,NA,"{""Q0"":""5"",""Q1"":""2"",""Q2"":""4"",""Q3"":""7""}","low_entitlement",6,"institution",5,2,4,7,"Male","Yes","36"
"123",184,39422,NA,"survey-multi-choice",4,513126,"0.0-4.0",2218,"group1",533525,NA,"{""Q0"":""4"",""Q1"":""5"",""Q2"":""6"",""Q3"":""4""}","low_entitlement",4,"relationship",4,5,6,4,"Male","Yes","36"
"124",185,31207,NA,"survey-multi-choice",5,544375,"0.0-5.0",2218,"group1",533525,NA,"{""Q0"":""4"",""Q1"":""6"",""Q2"":""2"",""Q3"":""7""}","high_entitlement",1,"interaction",4,6,2,7,"Male","Yes","36"
"125",186,32605,NA,"survey-multi-choice",6,577030,"0.0-6.0",2218,"group1",533525,NA,"{""Q0"":""4"",""Q1"":""6"",""Q2"":""5"",""Q3"":""5""}","low_entitlement",8,"urgency",4,6,5,5,"Male","Yes","36"
"126",187,12957,NA,"survey-multi-choice",7,590062,"0.0-7.0",2218,"group1",533525,NA,"{""Q0"":""4"",""Q1"":""6"",""Q2"":""3"",""Q3"":""7""}","high_entitlement",9,"urgency",4,6,3,7,"Male","Yes","36"
"127",188,12405,NA,"survey-multi-choice",8,602519,"0.0-8.0",2218,"group1",533525,NA,"{""Q0"":""4"",""Q1"":""5"",""Q2"":""6"",""Q3"":""4""}","high_entitlement",7,"urgency",4,5,6,4,"Male","Yes","36"
"128",189,15341,NA,"survey-multi-choice",9,617931,"0.0-9.0",2218,"group1",533525,NA,"{""Q0"":""4"",""Q1"":""1"",""Q2"":""2"",""Q3"":""7""}","low_entitlement",10,"institution",4,1,2,7,"Male","Yes","36"
"129",190,59957,NA,"survey-multi-choice",10,677934,"0.0-10.0",2218,"group1",533525,NA,"{""Q0"":""5"",""Q1"":""6"",""Q2"":""6"",""Q3"":""1""}","low_entitlement",2,"interaction",5,6,6,1,"Male","Yes","36"
"130",191,19256,NA,"survey-multi-choice",11,697238,"0.0-11.0",2218,"group1",533525,NA,"{""Q0"":""5"",""Q1"":""5"",""Q2"":""2"",""Q3"":""7""}","high_entitlement",3,"relationship",5,5,2,7,"Male","Yes","36"
"131",197,36901,NA,"survey-multi-choice",2,100690,"0.0-2.0",24013,"group2",516476,NA,"{""Q0"":""6"",""Q1"":""2"",""Q2"":""5"",""Q3"":""2""}","low_entitlement",5,"institution",6,2,5,2,"Male","Yes","39"
"132",198,28242,NA,"survey-multi-choice",3,128940,"0.0-3.0",24013,"group2",516476,NA,"{""Q0"":""5"",""Q1"":""5"",""Q2"":""1"",""Q3"":""4""}","low_entitlement",9,"urgency",5,5,1,4,"Male","Yes","39"
"133",199,29009,NA,"survey-multi-choice",4,157956,"0.0-4.0",24013,"group2",516476,NA,"{""Q0"":""6"",""Q1"":""5"",""Q2"":""6"",""Q3"":""4""}","low_entitlement",7,"urgency",6,5,6,4,"Male","Yes","39"
"134",200,23079,NA,"survey-multi-choice",5,181042,"0.0-5.0",24013,"group2",516476,NA,"{""Q0"":""6"",""Q1"":""6"",""Q2"":""5"",""Q3"":""6""}","high_entitlement",4,"relationship",6,6,5,6,"Male","Yes","39"
"135",201,27646,NA,"survey-multi-choice",6,208694,"0.0-6.0",24013,"group2",516476,NA,"{""Q0"":""7"",""Q1"":""4"",""Q2"":""5"",""Q3"":""4""}","low_entitlement",3,"relationship",7,4,5,4,"Male","Yes","39"
"136",202,19606,NA,"survey-multi-choice",7,228306,"0.0-7.0",24013,"group2",516476,NA,"{""Q0"":""6"",""Q1"":""4"",""Q2"":""6"",""Q3"":""6""}","high_entitlement",2,"interaction",6,4,6,6,"Male","Yes","39"
"137",203,25894,NA,"survey-multi-choice",8,254209,"0.0-8.0",24013,"group2",516476,NA,"{""Q0"":""5"",""Q1"":""6"",""Q2"":""6"",""Q3"":""5""}","high_entitlement",8,"urgency",5,6,6,5,"Male","Yes","39"
"138",204,17459,NA,"survey-multi-choice",9,271675,"0.0-9.0",24013,"group2",516476,NA,"{""Q0"":""7"",""Q1"":""3"",""Q2"":""5"",""Q3"":""6""}","high_entitlement",6,"institution",7,3,5,6,"Male","Yes","39"
"139",205,23144,NA,"survey-multi-choice",10,294827,"0.0-10.0",24013,"group2",516476,NA,"{""Q0"":""7"",""Q1"":""1"",""Q2"":""3"",""Q3"":""6""}","high_entitlement",10,"institution",7,1,3,6,"Male","Yes","39"
"140",206,51606,NA,"survey-multi-choice",11,346441,"0.0-11.0",24013,"group2",516476,NA,"{""Q0"":""6"",""Q1"":""5"",""Q2"":""7"",""Q3"":""3""}","low_entitlement",1,"interaction",6,5,7,3,"Male","Yes","39"
"141",212,38143,NA,"survey-multi-choice",2,89557,"0.0-2.0",25216,"group1",100629,NA,"{""Q0"":""7"",""Q1"":""1"",""Q2"":""1"",""Q3"":""7""}","high_entitlement",5,"institution",7,1,1,7,"Female","Yes","37"
"142",213,37629,NA,"survey-multi-choice",3,127201,"0.0-3.0",25216,"group1",100629,NA,"{""Q0"":""6"",""Q1"":""1"",""Q2"":""5"",""Q3"":""5""}","low_entitlement",6,"institution",6,1,5,5,"Female","Yes","37"
"143",214,40152,NA,"survey-multi-choice",4,167372,"0.0-4.0",25216,"group1",100629,NA,"{""Q0"":""7"",""Q1"":""4"",""Q2"":""7"",""Q3"":""1""}","low_entitlement",2,"interaction",7,4,7,1,"Female","Yes","37"
"144",215,26868,NA,"survey-multi-choice",5,194259,"0.0-5.0",25216,"group1",100629,NA,"{""Q0"":""5"",""Q1"":""3"",""Q2"":""4"",""Q3"":""7""}","high_entitlement",1,"interaction",5,3,4,7,"Female","Yes","37"
"145",216,28890,NA,"survey-multi-choice",6,223166,"0.0-6.0",25216,"group1",100629,NA,"{""Q0"":""7"",""Q1"":""6"",""Q2"":""7"",""Q3"":""1""}","high_entitlement",7,"urgency",7,6,7,1,"Female","Yes","37"
"146",217,18851,NA,"survey-multi-choice",7,242034,"0.0-7.0",25216,"group1",100629,NA,"{""Q0"":""7"",""Q1"":""4"",""Q2"":""4"",""Q3"":""2""}","high_entitlement",9,"urgency",7,4,4,2,"Female","Yes","37"
"147",218,48968,NA,"survey-multi-choice",8,291021,"0.0-8.0",25216,"group1",100629,NA,"{""Q0"":""5"",""Q1"":""2"",""Q2"":""3"",""Q3"":""7""}","high_entitlement",3,"relationship",5,2,3,7,"Female","Yes","37"
"148",219,13638,NA,"survey-multi-choice",9,304676,"0.0-9.0",25216,"group1",100629,NA,"{""Q0"":""7"",""Q1"":""2"",""Q2"":""5"",""Q3"":""1""}","low_entitlement",8,"urgency",7,2,5,1,"Female","Yes","37"
"149",220,29361,NA,"survey-multi-choice",10,334055,"0.0-10.0",25216,"group1",100629,NA,"{""Q0"":""6"",""Q1"":""1"",""Q2"":""2"",""Q3"":""7""}","low_entitlement",10,"institution",6,1,2,7,"Female","Yes","37"
"150",221,113455,NA,"survey-multi-choice",11,447527,"0.0-11.0",25216,"group1",100629,NA,"{""Q0"":""7"",""Q1"":""1"",""Q2"":""7"",""Q3"":""1""}","low_entitlement",4,"relationship",7,1,7,1,"Female","Yes","37"
"151",227,22268,NA,"survey-multi-choice",2,46244,"0.0-2.0",25386,"group2",961972,NA,"{""Q0"":""5"",""Q1"":""4"",""Q2"":""6"",""Q3"":""6""}","high_entitlement",2,"interaction",5,4,6,6,"Female","Yes","29"
"152",228,21232,NA,"survey-multi-choice",3,67494,"0.0-3.0",25386,"group2",961972,NA,"{""Q0"":""6"",""Q1"":""2"",""Q2"":""1"",""Q3"":""7""}","high_entitlement",10,"institution",6,2,1,7,"Female","Yes","29"
"153",229,14719,NA,"survey-multi-choice",4,82233,"0.0-4.0",25386,"group2",961972,NA,"{""Q0"":""7"",""Q1"":""2"",""Q2"":""2"",""Q3"":""7""}","high_entitlement",6,"institution",7,2,2,7,"Female","Yes","29"
"154",230,17888,NA,"survey-multi-choice",5,100143,"0.0-5.0",25386,"group2",961972,NA,"{""Q0"":""6"",""Q1"":""6"",""Q2"":""5"",""Q3"":""6""}","high_entitlement",8,"urgency",6,6,5,6,"Female","Yes","29"
"155",231,16573,NA,"survey-multi-choice",6,116736,"0.0-6.0",25386,"group2",961972,NA,"{""Q0"":""6"",""Q1"":""2"",""Q2"":""3"",""Q3"":""5""}","low_entitlement",5,"institution",6,2,3,5,"Female","Yes","29"
"156",232,6179,NA,"survey-multi-choice",7,122934,"0.0-7.0",25386,"group2",961972,NA,"{""Q0"":"""",""Q1"":"""",""Q2"":"""",""Q3"":""""}","high_entitlement",4,"relationship",NA,NA,NA,NA,"Female","Yes","29"
"157",233,11280,NA,"survey-multi-choice",8,134236,"0.0-8.0",25386,"group2",961972,NA,"{""Q0"":""5"",""Q1"":""7"",""Q2"":""5"",""Q3"":""7""}","low_entitlement",7,"urgency",5,7,5,7,"Female","Yes","29"
"158",234,17302,NA,"survey-multi-choice",9,151557,"0.0-9.0",25386,"group2",961972,NA,"{""Q0"":""5"",""Q1"":""5"",""Q2"":""5"",""Q3"":""4""}","low_entitlement",1,"interaction",5,5,5,4,"Female","Yes","29"
"159",235,16032,NA,"survey-multi-choice",10,167609,"0.0-10.0",25386,"group2",961972,NA,"{""Q0"":""4"",""Q1"":""6"",""Q2"":""3"",""Q3"":""4""}","low_entitlement",9,"urgency",4,6,3,4,"Female","Yes","29"
"160",236,11853,NA,"survey-multi-choice",11,179474,"0.0-11.0",25386,"group2",961972,NA,"{""Q0"":""6"",""Q1"":""4"",""Q2"":""6"",""Q3"":""4""}","low_entitlement",3,"relationship",6,4,6,4,"Female","Yes","29"
"161",242,25792,NA,"survey-multi-choice",2,61758,"0.0-2.0",27448,"group1",419992,NA,"{""Q0"":""4"",""Q1"":""6"",""Q2"":""1"",""Q3"":""1""}","high_entitlement",9,"urgency",4,6,1,1,"Male","Yes","30"
"162",243,31730,NA,"survey-multi-choice",3,93498,"0.0-3.0",27448,"group1",419992,NA,"{""Q0"":""7"",""Q1"":""1"",""Q2"":""1"",""Q3"":""1""}","high_entitlement",5,"institution",7,1,1,1,"Male","Yes","30"
"163",244,12438,NA,"survey-multi-choice",4,105946,"0.0-4.0",27448,"group1",419992,NA,"{""Q0"":""4"",""Q1"":""6"",""Q2"":""5"",""Q3"":""4""}","low_entitlement",8,"urgency",4,6,5,4,"Male","Yes","30"
"164",245,16186,NA,"survey-multi-choice",5,122141,"0.0-5.0",27448,"group1",419992,NA,"{""Q0"":""4"",""Q1"":""2"",""Q2"":""1"",""Q3"":""2""}","low_entitlement",6,"institution",4,2,1,2,"Male","Yes","30"
"165",246,161263,NA,"survey-multi-choice",6,283416,"0.0-6.0",27448,"group1",419992,NA,"{""Q0"":""6"",""Q1"":""4"",""Q2"":""1"",""Q3"":""1""}","high_entitlement",3,"relationship",6,4,1,1,"Male","Yes","30"
"166",247,24740,NA,"survey-multi-choice",7,308170,"0.0-7.0",27448,"group1",419992,NA,"{""Q0"":""7"",""Q1"":""4"",""Q2"":""5"",""Q3"":""5""}","low_entitlement",2,"interaction",7,4,5,5,"Male","Yes","30"
"167",248,23768,NA,"survey-multi-choice",8,331948,"0.0-8.0",27448,"group1",419992,NA,"{""Q0"":""4"",""Q1"":""7"",""Q2"":""4"",""Q3"":""3""}","high_entitlement",1,"interaction",4,7,4,3,"Male","Yes","30"
"168",249,15377,NA,"survey-multi-choice",9,347337,"0.0-9.0",27448,"group1",419992,NA,"{""Q0"":""7"",""Q1"":""5"",""Q2"":""7"",""Q3"":""3""}","high_entitlement",7,"urgency",7,5,7,3,"Male","Yes","30"
"169",250,24816,NA,"survey-multi-choice",10,372163,"0.0-10.0",27448,"group1",419992,NA,"{""Q0"":""5"",""Q1"":""4"",""Q2"":""6"",""Q3"":""4""}","low_entitlement",4,"relationship",5,4,6,4,"Male","Yes","30"
"170",251,30250,NA,"survey-multi-choice",11,402423,"0.0-11.0",27448,"group1",419992,NA,"{""Q0"":""3"",""Q1"":""1"",""Q2"":""1"",""Q3"":""1""}","low_entitlement",10,"institution",3,1,1,1,"Male","Yes","30"
"171",257,543159,NA,"survey-multi-choice",2,561944,"0.0-2.0",28240,"group2",257980,NA,"{""Q0"":""4"",""Q1"":""4"",""Q2"":""4"",""Q3"":""4""}","low_entitlement",1,"interaction",4,4,4,4,"Female","Yes","45"
"172",258,13310,NA,"survey-multi-choice",3,575268,"0.0-3.0",28240,"group2",257980,NA,"{""Q0"":""6"",""Q1"":""1"",""Q2"":""1"",""Q3"":""6""}","low_entitlement",5,"institution",6,1,1,6,"Female","Yes","45"
"173",259,13918,NA,"survey-multi-choice",4,589198,"0.0-4.0",28240,"group2",257980,NA,"{""Q0"":""6"",""Q1"":""6"",""Q2"":""4"",""Q3"":""3""}","low_entitlement",7,"urgency",6,6,4,3,"Female","Yes","45"
"174",260,72176,NA,"survey-multi-choice",5,661402,"0.0-5.0",28240,"group2",257980,NA,"{""Q0"":""7"",""Q1"":""6"",""Q2"":""2"",""Q3"":""7""}","high_entitlement",8,"urgency",7,6,2,7,"Female","Yes","45"
"175",261,17198,NA,"survey-multi-choice",6,678613,"0.0-6.0",28240,"group2",257980,NA,"{""Q0"":""7"",""Q1"":""2"",""Q2"":""5"",""Q3"":""4""}","low_entitlement",3,"relationship",7,2,5,4,"Female","Yes","45"
"176",262,12774,NA,"survey-multi-choice",7,691400,"0.0-7.0",28240,"group2",257980,NA,"{""Q0"":""4"",""Q1"":""6"",""Q2"":""4"",""Q3"":""2""}","low_entitlement",9,"urgency",4,6,4,2,"Female","Yes","45"
"177",263,11720,NA,"survey-multi-choice",8,703145,"0.0-8.0",28240,"group2",257980,NA,"{""Q0"":""6"",""Q1"":""6"",""Q2"":""4"",""Q3"":""5""}","high_entitlement",2,"interaction",6,6,4,5,"Female","Yes","45"
"178",264,14102,NA,"survey-multi-choice",9,717260,"0.0-9.0",28240,"group2",257980,NA,"{""Q0"":""7"",""Q1"":""1"",""Q2"":""1"",""Q3"":""7""}","high_entitlement",10,"institution",7,1,1,7,"Female","Yes","45"
"179",265,15122,NA,"survey-multi-choice",10,732396,"0.0-10.0",28240,"group2",257980,NA,"{""Q0"":""4"",""Q1"":""7"",""Q2"":""1"",""Q3"":""7""}","high_entitlement",4,"relationship",4,7,1,7,"Female","Yes","45"
"180",266,12425,NA,"survey-multi-choice",11,744836,"0.0-11.0",28240,"group2",257980,NA,"{""Q0"":""7"",""Q1"":""1"",""Q2"":""1"",""Q3"":""7""}","high_entitlement",6,"institution",7,1,1,7,"Female","Yes","45"
"181",272,33410,NA,"survey-multi-choice",2,914736,"0.0-2.0",29749,"group2",39492,NA,"{""Q0"":""4"",""Q1"":""6"",""Q2"":""5"",""Q3"":""4""}","high_entitlement",6,"institution",4,6,5,4,"Male","Yes","25"
"182",273,23810,NA,"survey-multi-choice",3,938578,"0.0-3.0",29749,"group2",39492,NA,"{""Q0"":""5"",""Q1"":""6"",""Q2"":""4"",""Q3"":""6""}","low_entitlement",1,"interaction",5,6,4,6,"Male","Yes","25"
"183",274,9334,NA,"survey-multi-choice",4,947945,"0.0-4.0",29749,"group2",39492,NA,"{""Q0"":""5"",""Q1"":""6"",""Q2"":""5"",""Q3"":""6""}","low_entitlement",9,"urgency",5,6,5,6,"Male","Yes","25"
"184",275,44147,NA,"survey-multi-choice",5,992124,"0.0-5.0",29749,"group2",39492,NA,"{""Q0"":""5"",""Q1"":""6"",""Q2"":""5"",""Q3"":""6""}","low_entitlement",3,"relationship",5,6,5,6,"Male","Yes","25"
"185",276,8901,NA,"survey-multi-choice",6,1001058,"0.0-6.0",29749,"group2",39492,NA,"{""Q0"":""5"",""Q1"":""6"",""Q2"":""5"",""Q3"":""6""}","high_entitlement",10,"institution",5,6,5,6,"Male","Yes","25"
"186",277,3055,NA,"survey-multi-choice",7,1004138,"0.0-7.0",29749,"group2",39492,NA,"{""Q0"":"""",""Q1"":"""",""Q2"":"""",""Q3"":""""}","high_entitlement",8,"urgency",NA,NA,NA,NA,"Male","Yes","25"
"187",278,11478,NA,"survey-multi-choice",8,1015648,"0.0-8.0",29749,"group2",39492,NA,"{""Q0"":""5"",""Q1"":""6"",""Q2"":""7"",""Q3"":""4""}","low_entitlement",7,"urgency",5,6,7,4,"Male","Yes","25"
"188",279,7452,NA,"survey-multi-choice",9,1023134,"0.0-9.0",29749,"group2",39492,NA,"{""Q0"":""4"",""Q1"":""5"",""Q2"":""6"",""Q3"":""7""}","high_entitlement",2,"interaction",4,5,6,7,"Male","Yes","25"
"189",280,9370,NA,"survey-multi-choice",10,1032533,"0.0-10.0",29749,"group2",39492,NA,"{""Q0"":""7"",""Q1"":""6"",""Q2"":""5"",""Q3"":""4""}","high_entitlement",4,"relationship",7,6,5,4,"Male","Yes","25"
"190",281,10142,NA,"survey-multi-choice",11,1042709,"0.0-11.0",29749,"group2",39492,NA,"{""Q0"":""4"",""Q1"":""5"",""Q2"":""6"",""Q3"":""7""}","low_entitlement",5,"institution",4,5,6,7,"Male","Yes","25"
"191",287,36367,NA,"survey-multi-choice",2,69190,"0.0-2.0",29944,"group2",188249,NA,"{""Q0"":""6"",""Q1"":""5"",""Q2"":""4"",""Q3"":""5""}","low_entitlement",9,"urgency",6,5,4,5,"Male","Yes","35"
"192",288,24917,NA,"survey-multi-choice",3,94113,"0.0-3.0",29944,"group2",188249,NA,"{""Q0"":""6"",""Q1"":""7"",""Q2"":""6"",""Q3"":""5""}","high_entitlement",4,"relationship",6,7,6,5,"Male","Yes","35"
"193",289,25957,NA,"survey-multi-choice",4,120076,"0.0-4.0",29944,"group2",188249,NA,"{""Q0"":""7"",""Q1"":""1"",""Q2"":""4"",""Q3"":""5""}","low_entitlement",5,"institution",7,1,4,5,"Male","Yes","35"
"194",290,67930,NA,"survey-multi-choice",5,188013,"0.0-5.0",29944,"group2",188249,NA,"{""Q0"":""7"",""Q1"":""3"",""Q2"":""4"",""Q3"":""2""}","low_entitlement",3,"relationship",7,3,4,2,"Male","Yes","35"
"195",291,27246,NA,"survey-multi-choice",6,215264,"0.0-6.0",29944,"group2",188249,NA,"{""Q0"":""7"",""Q1"":""6"",""Q2"":""7"",""Q3"":""4""}","low_entitlement",7,"urgency",7,6,7,4,"Male","Yes","35"
"196",292,39855,NA,"survey-multi-choice",7,255125,"0.0-7.0",29944,"group2",188249,NA,"{""Q0"":""7"",""Q1"":""1"",""Q2"":""7"",""Q3"":""1""}","high_entitlement",6,"institution",7,1,7,1,"Male","Yes","35"
"197",293,25541,NA,"survey-multi-choice",8,280672,"0.0-8.0",29944,"group2",188249,NA,"{""Q0"":""6"",""Q1"":""6"",""Q2"":""6"",""Q3"":""5""}","low_entitlement",1,"interaction",6,6,6,5,"Male","Yes","35"
"198",294,20101,NA,"survey-multi-choice",9,300779,"0.0-9.0",29944,"group2",188249,NA,"{""Q0"":""4"",""Q1"":""6"",""Q2"":""3"",""Q3"":""1""}","high_entitlement",2,"interaction",4,6,3,1,"Male","Yes","35"
"199",295,23789,NA,"survey-multi-choice",10,324575,"0.0-10.0",29944,"group2",188249,NA,"{""Q0"":""6"",""Q1"":""1"",""Q2"":""2"",""Q3"":""1""}","high_entitlement",10,"institution",6,1,2,1,"Male","Yes","35"
"200",296,35173,NA,"survey-multi-choice",11,359755,"0.0-11.0",29944,"group2",188249,NA,"{""Q0"":""7"",""Q1"":""6"",""Q2"":""7"",""Q3"":""2""}","high_entitlement",8,"urgency",7,6,7,2,"Male","Yes","35"
"201",302,21234,NA,"survey-multi-choice",2,47375,"0.0-2.0",32026,"group1",974726,NA,"{""Q0"":""6"",""Q1"":""5"",""Q2"":""5"",""Q3"":""4""}","high_entitlement",7,"urgency",6,5,5,4,"Male","Yes","30"
"202",303,17150,NA,"survey-multi-choice",3,64531,"0.0-3.0",32026,"group1",974726,NA,"{""Q0"":""6"",""Q1"":""3"",""Q2"":""6"",""Q3"":""6""}","low_entitlement",2,"interaction",6,3,6,6,"Male","Yes","30"
"203",304,15732,NA,"survey-multi-choice",4,80270,"0.0-4.0",32026,"group1",974726,NA,"{""Q0"":""3"",""Q1"":""2"",""Q2"":""2"",""Q3"":""2""}","low_entitlement",10,"institution",3,2,2,2,"Male","Yes","30"
"204",305,21348,NA,"survey-multi-choice",5,101623,"0.0-5.0",32026,"group1",974726,NA,"{""Q0"":""4"",""Q1"":""4"",""Q2"":""2"",""Q3"":""2""}","high_entitlement",1,"interaction",4,4,2,2,"Male","Yes","30"
"205",306,14316,NA,"survey-multi-choice",6,115944,"0.0-6.0",32026,"group1",974726,NA,"{""Q0"":""6"",""Q1"":""6"",""Q2"":""2"",""Q3"":""1""}","high_entitlement",9,"urgency",6,6,2,1,"Male","Yes","30"
"206",307,17004,NA,"survey-multi-choice",7,132955,"0.0-7.0",32026,"group1",974726,NA,"{""Q0"":""3"",""Q1"":""3"",""Q2"":""3"",""Q3"":""2""}","high_entitlement",3,"relationship",3,3,3,2,"Male","Yes","30"
"207",308,12358,NA,"survey-multi-choice",8,145318,"0.0-8.0",32026,"group1",974726,NA,"{""Q0"":""5"",""Q1"":""4"",""Q2"":""6"",""Q3"":""5""}","low_entitlement",4,"relationship",5,4,6,5,"Male","Yes","30"
"208",309,11165,NA,"survey-multi-choice",9,156490,"0.0-9.0",32026,"group1",974726,NA,"{""Q0"":""5"",""Q1"":""5"",""Q2"":""5"",""Q3"":""3""}","low_entitlement",8,"urgency",5,5,5,3,"Male","Yes","30"
"209",310,18130,NA,"survey-multi-choice",10,174625,"0.0-10.0",32026,"group1",974726,NA,"{""Q0"":""6"",""Q1"":""2"",""Q2"":""1"",""Q3"":""1""}","high_entitlement",5,"institution",6,2,1,1,"Male","Yes","30"
"210",311,16093,NA,"survey-multi-choice",11,190724,"0.0-11.0",32026,"group1",974726,NA,"{""Q0"":""2"",""Q1"":""2"",""Q2"":""2"",""Q3"":""1""}","low_entitlement",6,"institution",2,2,2,1,"Male","Yes","30"
"211",317,39071,NA,"survey-multi-choice",2,69953,"0.0-2.0",32078,"group2",828427,NA,"{""Q0"":""4"",""Q1"":""5"",""Q2"":""3"",""Q3"":""3""}","high_entitlement",2,"interaction",4,5,3,3,"Male","Yes","46"
"212",318,42488,NA,"survey-multi-choice",3,112448,"0.0-3.0",32078,"group2",828427,NA,"{""Q0"":""5"",""Q1"":""5"",""Q2"":""5"",""Q3"":""4""}","low_entitlement",1,"interaction",5,5,5,4,"Male","Yes","46"
"213",319,39103,NA,"survey-multi-choice",4,151560,"0.0-4.0",32078,"group2",828427,NA,"{""Q0"":""4"",""Q1"":""6"",""Q2"":""1"",""Q3"":""2""}","low_entitlement",9,"urgency",4,6,1,2,"Male","Yes","46"
"214",320,26503,NA,"survey-multi-choice",5,178072,"0.0-5.0",32078,"group2",828427,NA,"{""Q0"":""4"",""Q1"":""7"",""Q2"":""2"",""Q3"":""1""}","high_entitlement",4,"relationship",4,7,2,1,"Male","Yes","46"
"215",321,62471,NA,"survey-multi-choice",6,240552,"0.0-6.0",32078,"group2",828427,NA,"{""Q0"":""5"",""Q1"":""1"",""Q2"":""1"",""Q3"":""5""}","high_entitlement",10,"institution",5,1,1,5,"Male","Yes","46"
"216",322,38542,NA,"survey-multi-choice",7,279103,"0.0-7.0",32078,"group2",828427,NA,"{""Q0"":""6"",""Q1"":""3"",""Q2"":""3"",""Q3"":""4""}","low_entitlement",3,"relationship",6,3,3,4,"Male","Yes","46"
"217",323,50745,NA,"survey-multi-choice",8,329855,"0.0-8.0",32078,"group2",828427,NA,"{""Q0"":""4"",""Q1"":""5"",""Q2"":""4"",""Q3"":""5""}","high_entitlement",8,"urgency",4,5,4,5,"Male","Yes","46"
"218",324,23151,NA,"survey-multi-choice",9,353015,"0.0-9.0",32078,"group2",828427,NA,"{""Q0"":""5"",""Q1"":""6"",""Q2"":""5"",""Q3"":""5""}","low_entitlement",7,"urgency",5,6,5,5,"Male","Yes","46"
"219",325,30238,NA,"survey-multi-choice",10,383262,"0.0-10.0",32078,"group2",828427,NA,"{""Q0"":""5"",""Q1"":""2"",""Q2"":""2"",""Q3"":""7""}","high_entitlement",6,"institution",5,2,2,7,"Male","Yes","46"
"220",326,24496,NA,"survey-multi-choice",11,407767,"0.0-11.0",32078,"group2",828427,NA,"{""Q0"":""5"",""Q1"":""1"",""Q2"":""2"",""Q3"":""4""}","low_entitlement",5,"institution",5,1,2,4,"Male","Yes","46"
"221",332,32473,NA,"survey-multi-choice",2,119126,"0.0-2.0",33924,"group1",849658,NA,"{""Q0"":""5"",""Q1"":""6"",""Q2"":""6"",""Q3"":""4""}","high_entitlement",7,"urgency",5,6,6,4,"Male","Yes","25"
"222",333,29750,NA,"survey-multi-choice",3,148883,"0.0-3.0",33924,"group1",849658,NA,"{""Q0"":""4"",""Q1"":""7"",""Q2"":""3"",""Q3"":""5""}","low_entitlement",8,"urgency",4,7,3,5,"Male","Yes","25"
"223",334,29764,NA,"survey-multi-choice",4,178653,"0.0-4.0",33924,"group1",849658,NA,"{""Q0"":""2"",""Q1"":""4"",""Q2"":""5"",""Q3"":""6""}","high_entitlement",3,"relationship",2,4,5,6,"Male","Yes","25"
"224",335,21287,NA,"survey-multi-choice",5,199947,"0.0-5.0",33924,"group1",849658,NA,"{""Q0"":""4"",""Q1"":""2"",""Q2"":""2"",""Q3"":""7""}","high_entitlement",5,"institution",4,2,2,7,"Male","Yes","25"
"225",336,23582,NA,"survey-multi-choice",6,223535,"0.0-6.0",33924,"group1",849658,NA,"{""Q0"":""5"",""Q1"":""5"",""Q2"":""3"",""Q3"":""5""}","high_entitlement",9,"urgency",5,5,3,5,"Male","Yes","25"
"226",337,24975,NA,"survey-multi-choice",7,248518,"0.0-7.0",33924,"group1",849658,NA,"{""Q0"":""4"",""Q1"":""2"",""Q2"":""1"",""Q3"":""6""}","low_entitlement",6,"institution",4,2,1,6,"Male","Yes","25"
"227",338,23062,NA,"survey-multi-choice",8,271586,"0.0-8.0",33924,"group1",849658,NA,"{""Q0"":""6"",""Q1"":""4"",""Q2"":""6"",""Q3"":""2""}","low_entitlement",4,"relationship",6,4,6,2,"Male","Yes","25"
"228",339,24892,NA,"survey-multi-choice",9,296487,"0.0-9.0",33924,"group1",849658,NA,"{""Q0"":""3"",""Q1"":""1"",""Q2"":""2"",""Q3"":""7""}","low_entitlement",10,"institution",3,1,2,7,"Male","Yes","25"
"229",340,21527,NA,"survey-multi-choice",10,318021,"0.0-10.0",33924,"group1",849658,NA,"{""Q0"":""4"",""Q1"":""5"",""Q2"":""3"",""Q3"":""7""}","high_entitlement",1,"interaction",4,5,3,7,"Male","Yes","25"
"230",341,21272,NA,"survey-multi-choice",11,339299,"0.0-11.0",33924,"group1",849658,NA,"{""Q0"":""7"",""Q1"":""7"",""Q2"":""7"",""Q3"":""1""}","low_entitlement",2,"interaction",7,7,7,1,"Male","Yes","25"
"231",347,21263,NA,"survey-multi-choice",2,77087,"0.0-2.0",34342,"group1",321212,NA,"{""Q0"":""6"",""Q1"":""3"",""Q2"":""6"",""Q3"":""2""}","low_entitlement",4,"relationship",6,3,6,2,"Male","Yes","31"
"232",348,13562,NA,"survey-multi-choice",3,90655,"0.0-3.0",34342,"group1",321212,NA,"{""Q0"":""4"",""Q1"":""5"",""Q2"":""2"",""Q3"":""6""}","high_entitlement",1,"interaction",4,5,2,6,"Male","Yes","31"
"233",349,18198,NA,"survey-multi-choice",4,108859,"0.0-4.0",34342,"group1",321212,NA,"{""Q0"":""4"",""Q1"":""1"",""Q2"":""2"",""Q3"":""7""}","low_entitlement",10,"institution",4,1,2,7,"Male","Yes","31"
"234",350,15776,NA,"survey-multi-choice",5,124641,"0.0-5.0",34342,"group1",321212,NA,"{""Q0"":""6"",""Q1"":""4"",""Q2"":""5"",""Q3"":""2""}","low_entitlement",8,"urgency",6,4,5,2,"Male","Yes","31"
"235",351,16522,NA,"survey-multi-choice",6,141168,"0.0-6.0",34342,"group1",321212,NA,"{""Q0"":""6"",""Q1"":""4"",""Q2"":""1"",""Q3"":""7""}","high_entitlement",5,"institution",6,4,1,7,"Male","Yes","31"
"236",352,13082,NA,"survey-multi-choice",7,154256,"0.0-7.0",34342,"group1",321212,NA,"{""Q0"":""7"",""Q1"":""3"",""Q2"":""7"",""Q3"":""1""}","low_entitlement",2,"interaction",7,3,7,1,"Male","Yes","31"
"237",353,15783,NA,"survey-multi-choice",8,170046,"0.0-8.0",34342,"group1",321212,NA,"{""Q0"":""7"",""Q1"":""5"",""Q2"":""7"",""Q3"":""1""}","high_entitlement",7,"urgency",7,5,7,1,"Male","Yes","31"
"238",354,18198,NA,"survey-multi-choice",9,188250,"0.0-9.0",34342,"group1",321212,NA,"{""Q0"":""6"",""Q1"":""5"",""Q2"":""3"",""Q3"":""5""}","high_entitlement",9,"urgency",6,5,3,5,"Male","Yes","31"
"239",355,14282,NA,"survey-multi-choice",10,202539,"0.0-10.0",34342,"group1",321212,NA,"{""Q0"":""2"",""Q1"":""4"",""Q2"":""5"",""Q3"":""5""}","high_entitlement",3,"relationship",2,4,5,5,"Male","Yes","31"
"240",356,11738,NA,"survey-multi-choice",11,214285,"0.0-11.0",34342,"group1",321212,NA,"{""Q0"":""4"",""Q1"":""2"",""Q2"":""2"",""Q3"":""6""}","low_entitlement",6,"institution",4,2,2,6,"Male","Yes","31"
"241",362,93246,NA,"survey-multi-choice",2,580936,"0.0-2.0",3475,"group1",738399,NA,"{""Q0"":""5"",""Q1"":""5"",""Q2"":""4"",""Q3"":""5""}","low_entitlement",8,"urgency",5,5,4,5,"Male","No","36"
"242",363,410268,NA,"survey-multi-choice",3,991225,"0.0-3.0",3475,"group1",738399,NA,"{""Q0"":""5"",""Q1"":""2"",""Q2"":""3"",""Q3"":""5""}","low_entitlement",6,"institution",5,2,3,5,"Male","No","36"
"243",364,106053,NA,"survey-multi-choice",4,1097295,"0.0-4.0",3475,"group1",738399,NA,"{""Q0"":""6"",""Q1"":""4"",""Q2"":""5"",""Q3"":""4""}","high_entitlement",3,"relationship",6,4,5,4,"Male","No","36"
"244",365,126872,NA,"survey-multi-choice",5,1224187,"0.0-5.0",3475,"group1",738399,NA,"{""Q0"":""4"",""Q1"":""5"",""Q2"":""6"",""Q3"":""5""}","low_entitlement",4,"relationship",4,5,6,5,"Male","No","36"
"245",366,50981,NA,"survey-multi-choice",6,1275187,"0.0-6.0",3475,"group1",738399,NA,"{""Q0"":""5"",""Q1"":""6"",""Q2"":""2"",""Q3"":""6""}","high_entitlement",1,"interaction",5,6,2,6,"Male","No","36"
"246",367,36355,NA,"survey-multi-choice",7,1311559,"0.0-7.0",3475,"group1",738399,NA,"{""Q0"":""5"",""Q1"":""6"",""Q2"":""5"",""Q3"":""6""}","high_entitlement",7,"urgency",5,6,5,6,"Male","No","36"
"247",368,71274,NA,"survey-multi-choice",8,1382853,"0.0-8.0",3475,"group1",738399,NA,"{""Q0"":""4"",""Q1"":""2"",""Q2"":""2"",""Q3"":""7""}","high_entitlement",5,"institution",4,2,2,7,"Male","No","36"
"248",369,111526,NA,"survey-multi-choice",9,1494396,"0.0-9.0",3475,"group1",738399,NA,"{""Q0"":""6"",""Q1"":""5"",""Q2"":""7"",""Q3"":""2""}","low_entitlement",2,"interaction",6,5,7,2,"Male","No","36"
"249",370,46628,NA,"survey-multi-choice",10,1541043,"0.0-10.0",3475,"group1",738399,NA,"{""Q0"":""4"",""Q1"":""6"",""Q2"":""3"",""Q3"":""7""}","high_entitlement",9,"urgency",4,6,3,7,"Male","No","36"
"250",371,84902,NA,"survey-multi-choice",11,1625963,"0.0-11.0",3475,"group1",738399,NA,"{""Q0"":""4"",""Q1"":""1"",""Q2"":""1"",""Q3"":""7""}","low_entitlement",10,"institution",4,1,1,7,"Male","No","36"
"251",377,23418,NA,"survey-multi-choice",2,40249,"0.0-2.0",37431,"group2",225584,NA,"{""Q0"":""5"",""Q1"":""6"",""Q2"":""2"",""Q3"":""6""}","high_entitlement",2,"interaction",5,6,2,6,"Male","Yes","23"
"252",378,26003,NA,"survey-multi-choice",3,66257,"0.0-3.0",37431,"group2",225584,NA,"{""Q0"":""7"",""Q1"":""4"",""Q2"":""6"",""Q3"":""2""}","low_entitlement",1,"interaction",7,4,6,2,"Male","Yes","23"
"253",379,20116,NA,"survey-multi-choice",4,86378,"0.0-4.0",37431,"group2",225584,NA,"{""Q0"":""5"",""Q1"":""7"",""Q2"":""2"",""Q3"":""6""}","high_entitlement",4,"relationship",5,7,2,6,"Male","Yes","23"
"254",380,14962,NA,"survey-multi-choice",5,101347,"0.0-5.0",37431,"group2",225584,NA,"{""Q0"":""2"",""Q1"":""7"",""Q2"":""1"",""Q3"":""7""}","low_entitlement",9,"urgency",2,7,1,7,"Male","Yes","23"
"255",381,14832,NA,"survey-multi-choice",6,116187,"0.0-6.0",37431,"group2",225584,NA,"{""Q0"":""6"",""Q1"":""5"",""Q2"":""4"",""Q3"":""2""}","low_entitlement",7,"urgency",6,5,4,2,"Male","Yes","23"
"256",382,21530,NA,"survey-multi-choice",7,137724,"0.0-7.0",37431,"group2",225584,NA,"{""Q0"":""7"",""Q1"":""7"",""Q2"":""1"",""Q3"":""5""}","high_entitlement",8,"urgency",7,7,1,5,"Male","Yes","23"
"257",383,16180,NA,"survey-multi-choice",8,153908,"0.0-8.0",37431,"group2",225584,NA,"{""Q0"":""2"",""Q1"":""1"",""Q2"":""1"",""Q3"":""7""}","high_entitlement",10,"institution",2,1,1,7,"Male","Yes","23"
"258",384,18826,NA,"survey-multi-choice",9,172741,"0.0-9.0",37431,"group2",225584,NA,"{""Q0"":""2"",""Q1"":""1"",""Q2"":""1"",""Q3"":""7""}","high_entitlement",6,"institution",2,1,1,7,"Male","Yes","23"
"259",385,15187,NA,"survey-multi-choice",10,187934,"0.0-10.0",37431,"group2",225584,NA,"{""Q0"":""7"",""Q1"":""3"",""Q2"":""4"",""Q3"":""1""}","low_entitlement",3,"relationship",7,3,4,1,"Male","Yes","23"
"260",386,15026,NA,"survey-multi-choice",11,202966,"0.0-11.0",37431,"group2",225584,NA,"{""Q0"":""3"",""Q1"":""1"",""Q2"":""1"",""Q3"":""5""}","low_entitlement",5,"institution",3,1,1,5,"Male","Yes","23"
"261",392,38416,NA,"survey-multi-choice",2,109018,"0.0-2.0",37937,"group1",27296,NA,"{""Q0"":""5"",""Q1"":""7"",""Q2"":""3"",""Q3"":""6""}","high_entitlement",9,"urgency",5,7,3,6,"Male","Yes","39"
"262",393,30906,NA,"survey-multi-choice",3,139932,"0.0-3.0",37937,"group1",27296,NA,"{""Q0"":""5"",""Q1"":""2"",""Q2"":""2"",""Q3"":""6""}","low_entitlement",6,"institution",5,2,2,6,"Male","Yes","39"
"263",394,66499,NA,"survey-multi-choice",4,206453,"0.0-4.0",37937,"group1",27296,NA,"{""Q0"":""2"",""Q1"":""5"",""Q2"":""4"",""Q3"":""5""}","high_entitlement",3,"relationship",2,5,4,5,"Male","Yes","39"
"264",395,20312,NA,"survey-multi-choice",5,226786,"0.0-5.0",37937,"group1",27296,NA,"{""Q0"":""6"",""Q1"":""5"",""Q2"":""6"",""Q3"":""1""}","low_entitlement",2,"interaction",6,5,6,1,"Male","Yes","39"
"265",396,28526,NA,"survey-multi-choice",6,255324,"0.0-6.0",37937,"group1",27296,NA,"{""Q0"":""5"",""Q1"":""2"",""Q2"":""3"",""Q3"":""7""}","high_entitlement",5,"institution",5,2,3,7,"Male","Yes","39"
"266",397,19330,NA,"survey-multi-choice",7,274676,"0.0-7.0",37937,"group1",27296,NA,"{""Q0"":""5"",""Q1"":""2"",""Q2"":""3"",""Q3"":""6""}","low_entitlement",10,"institution",5,2,3,6,"Male","Yes","39"
"267",398,89434,NA,"survey-multi-choice",8,364132,"0.0-8.0",37937,"group1",27296,NA,"{""Q0"":""5"",""Q1"":""4"",""Q2"":""5"",""Q3"":""3""}","low_entitlement",4,"relationship",5,4,5,3,"Male","Yes","39"
"268",399,11879,NA,"survey-multi-choice",9,376036,"0.0-9.0",37937,"group1",27296,NA,"{""Q0"":""5"",""Q1"":""6"",""Q2"":""4"",""Q3"":""2""}","low_entitlement",8,"urgency",5,6,4,2,"Male","Yes","39"
"269",400,49921,NA,"survey-multi-choice",10,425979,"0.0-10.0",37937,"group1",27296,NA,"{""Q0"":""5"",""Q1"":""6"",""Q2"":""5"",""Q3"":""2""}","high_entitlement",7,"urgency",5,6,5,2,"Male","Yes","39"
"270",401,46354,NA,"survey-multi-choice",11,472338,"0.0-11.0",37937,"group1",27296,NA,"{""Q0"":""3"",""Q1"":""5"",""Q2"":""3"",""Q3"":""5""}","high_entitlement",1,"interaction",3,5,3,5,"Male","Yes","39"
"271",407,15290,NA,"survey-multi-choice",2,38506,"0.0-2.0",3826,"group1",89727,NA,"{""Q0"":""4"",""Q1"":""5"",""Q2"":""6"",""Q3"":""5""}","high_entitlement",7,"urgency",4,5,6,5,"Male","Yes","28"
"272",408,7270,NA,"survey-multi-choice",3,45801,"0.0-3.0",3826,"group1",89727,NA,"{""Q0"":""5"",""Q1"":""6"",""Q2"":"""",""Q3"":""6""}","low_entitlement",4,"relationship",5,6,NA,6,"Male","Yes","28"
"273",409,7830,NA,"survey-multi-choice",4,53657,"0.0-4.0",3826,"group1",89727,NA,"{""Q0"":""6"",""Q1"":""5"",""Q2"":""6"",""Q3"":""6""}","high_entitlement",9,"urgency",6,5,6,6,"Male","Yes","28"
"274",410,14789,NA,"survey-multi-choice",5,68473,"0.0-5.0",3826,"group1",89727,NA,"{""Q0"":""5"",""Q1"":""6"",""Q2"":""6"",""Q3"":""6""}","low_entitlement",2,"interaction",5,6,6,6,"Male","Yes","28"
"275",411,7013,NA,"survey-multi-choice",6,75512,"0.0-6.0",3826,"group1",89727,NA,"{""Q0"":""5"",""Q1"":""6"",""Q2"":""5"",""Q3"":""6""}","low_entitlement",8,"urgency",5,6,5,6,"Male","Yes","28"
"276",412,5980,NA,"survey-multi-choice",7,81521,"0.0-7.0",3826,"group1",89727,NA,"{""Q0"":""6"",""Q1"":""5"",""Q2"":""6"",""Q3"":""5""}","low_entitlement",6,"institution",6,5,6,5,"Male","Yes","28"
"277",413,8964,NA,"survey-multi-choice",8,90514,"0.0-8.0",3826,"group1",89727,NA,"{""Q0"":""6"",""Q1"":""5"",""Q2"":""6"",""Q3"":""6""}","low_entitlement",10,"institution",6,5,6,6,"Male","Yes","28"
"278",414,7358,NA,"survey-multi-choice",9,97905,"0.0-9.0",3826,"group1",89727,NA,"{""Q0"":""6"",""Q1"":""5"",""Q2"":""5"",""Q3"":""6""}","high_entitlement",5,"institution",6,5,5,6,"Male","Yes","28"
"279",415,7120,NA,"survey-multi-choice",10,105057,"0.0-10.0",3826,"group1",89727,NA,"{""Q0"":""5"",""Q1"":""6"",""Q2"":""5"",""Q3"":""6""}","high_entitlement",1,"interaction",5,6,5,6,"Male","Yes","28"
"280",416,5045,NA,"survey-multi-choice",11,110145,"0.0-11.0",3826,"group1",89727,NA,"{""Q0"":""6"",""Q1"":""5"",""Q2"":""6"",""Q3"":""6""}","high_entitlement",3,"relationship",6,5,6,6,"Male","Yes","28"
"281",422,48868,NA,"survey-multi-choice",2,2186000,"0.0-2.0",38293,"group2",303564,NA,"{""Q0"":""3"",""Q1"":""3"",""Q2"":""6"",""Q3"":""7""}","low_entitlement",3,"relationship",3,3,6,7,"Male","Yes","28"
"282",423,11763,NA,"survey-multi-choice",3,2197784,"0.0-3.0",38293,"group2",303564,NA,"{""Q0"":""5"",""Q1"":""5"",""Q2"":""7"",""Q3"":""7""}","high_entitlement",10,"institution",5,5,7,7,"Male","Yes","28"
"283",424,11783,NA,"survey-multi-choice",4,2209584,"0.0-4.0",38293,"group2",303564,NA,"{""Q0"":""7"",""Q1"":""7"",""Q2"":""5"",""Q3"":""4""}","high_entitlement",6,"institution",7,7,5,4,"Male","Yes","28"
"284",425,11171,NA,"survey-multi-choice",5,2220776,"0.0-5.0",38293,"group2",303564,NA,"{""Q0"":""5"",""Q1"":""6"",""Q2"":""5"",""Q3"":""7""}","low_entitlement",9,"urgency",5,6,5,7,"Male","Yes","28"
"285",426,12461,NA,"survey-multi-choice",6,2233258,"0.0-6.0",38293,"group2",303564,NA,"{""Q0"":""7"",""Q1"":""6"",""Q2"":""6"",""Q3"":""7""}","low_entitlement",7,"urgency",7,6,6,7,"Male","Yes","28"
"286",427,9257,NA,"survey-multi-choice",7,2242529,"0.0-7.0",38293,"group2",303564,NA,"{""Q0"":""7"",""Q1"":""7"",""Q2"":""7"",""Q3"":""7""}","low_entitlement",5,"institution",7,7,7,7,"Male","Yes","28"
"287",428,330309,NA,"survey-multi-choice",8,2572859,"0.0-8.0",38293,"group2",303564,NA,"{""Q0"":""6"",""Q1"":""6"",""Q2"":""7"",""Q3"":""7""}","low_entitlement",1,"interaction",6,6,7,7,"Male","Yes","28"
"288",429,7292,NA,"survey-multi-choice",9,2580172,"0.0-9.0",38293,"group2",303564,NA,"{""Q0"":""4"",""Q1"":""3"",""Q2"":""3"",""Q3"":""4""}","high_entitlement",2,"interaction",4,3,3,4,"Male","Yes","28"
"289",430,5651,NA,"survey-multi-choice",10,2585844,"0.0-10.0",38293,"group2",303564,NA,"{""Q0"":""7"",""Q1"":""6"",""Q2"":""5"",""Q3"":""7""}","high_entitlement",4,"relationship",7,6,5,7,"Male","Yes","28"
"290",431,30562,NA,"survey-multi-choice",11,2616429,"0.0-11.0",38293,"group2",303564,NA,"{""Q0"":""6"",""Q1"":""7"",""Q2"":""7"",""Q3"":""5""}","high_entitlement",8,"urgency",6,7,7,5,"Male","Yes","28"
"291",437,18807,NA,"survey-multi-choice",2,29216,"0.0-2.0",38510,"group2",166454,NA,"{""Q0"":""2"",""Q1"":""5"",""Q2"":""5"",""Q3"":""7""}","high_entitlement",2,"interaction",2,5,5,7,"Female","Yes","25"
"292",438,17085,NA,"survey-multi-choice",3,46306,"0.0-3.0",38510,"group2",166454,NA,"{""Q0"":""5"",""Q1"":""5"",""Q2"":""5"",""Q3"":""4""}","low_entitlement",7,"urgency",5,5,5,4,"Female","Yes","25"
"293",439,21242,NA,"survey-multi-choice",4,67552,"0.0-4.0",38510,"group2",166454,NA,"{""Q0"":""7"",""Q1"":""2"",""Q2"":""3"",""Q3"":""4""}","low_entitlement",3,"relationship",7,2,3,4,"Female","Yes","25"
"294",440,9372,NA,"survey-multi-choice",5,76930,"0.0-5.0",38510,"group2",166454,NA,"{""Q0"":""5"",""Q1"":""2"",""Q2"":""5"",""Q3"":""4""}","low_entitlement",1,"interaction",5,2,5,4,"Female","Yes","25"
"295",441,13839,NA,"survey-multi-choice",6,90774,"0.0-6.0",38510,"group2",166454,NA,"{""Q0"":""6"",""Q1"":""1"",""Q2"":""5"",""Q3"":""5""}","high_entitlement",6,"institution",6,1,5,5,"Female","Yes","25"
"296",442,17055,NA,"survey-multi-choice",7,107834,"0.0-7.0",38510,"group2",166454,NA,"{""Q0"":""4"",""Q1"":""7"",""Q2"":""2"",""Q3"":""7""}","high_entitlement",4,"relationship",4,7,2,7,"Female","Yes","25"
"297",443,9805,NA,"survey-multi-choice",8,117644,"0.0-8.0",38510,"group2",166454,NA,"{""Q0"":""4"",""Q1"":""5"",""Q2"":""4"",""Q3"":""5""}","high_entitlement",8,"urgency",4,5,4,5,"Female","Yes","25"
"298",444,11070,NA,"survey-multi-choice",9,128720,"0.0-9.0",38510,"group2",166454,NA,"{""Q0"":""6"",""Q1"":""1"",""Q2"":""3"",""Q3"":""4""}","low_entitlement",5,"institution",6,1,3,4,"Female","Yes","25"
"299",445,13437,NA,"survey-multi-choice",10,142162,"0.0-10.0",38510,"group2",166454,NA,"{""Q0"":""4"",""Q1"":""5"",""Q2"":""2"",""Q3"":""3""}","low_entitlement",9,"urgency",4,5,2,3,"Female","Yes","25"
"300",446,8710,NA,"survey-multi-choice",11,150878,"0.0-11.0",38510,"group2",166454,NA,"{""Q0"":""6"",""Q1"":""1"",""Q2"":""5"",""Q3"":""5""}","high_entitlement",10,"institution",6,1,5,5,"Female","Yes","25"
"301",452,147677,NA,"survey-multi-choice",2,231566,"0.0-2.0",40239,"group1",432286,NA,"{""Q0"":""6"",""Q1"":""5"",""Q2"":""3"",""Q3"":""1""}","low_entitlement",2,"interaction",6,5,3,1,"Male","No","24"
"302",453,98140,NA,"survey-multi-choice",3,329721,"0.0-3.0",40239,"group1",432286,NA,"{""Q0"":""7"",""Q1"":""7"",""Q2"":""1"",""Q3"":""7""}","high_entitlement",9,"urgency",7,7,1,7,"Male","No","24"
"303",454,77335,NA,"survey-multi-choice",4,407069,"0.0-4.0",40239,"group1",432286,NA,"{""Q0"":""3"",""Q1"":""6"",""Q2"":""2"",""Q3"":""6""}","high_entitlement",1,"interaction",3,6,2,6,"Male","No","24"
"304",455,64979,NA,"survey-multi-choice",5,472062,"0.0-5.0",40239,"group1",432286,NA,"{""Q0"":""5"",""Q1"":""3"",""Q2"":""4"",""Q3"":""1""}","low_entitlement",4,"relationship",5,3,4,1,"Male","No","24"
"305",456,67281,NA,"survey-multi-choice",6,539358,"0.0-6.0",40239,"group1",432286,NA,"{""Q0"":""4"",""Q1"":""1"",""Q2"":""1"",""Q3"":""7""}","low_entitlement",6,"institution",4,1,1,7,"Male","No","24"
"306",457,60751,NA,"survey-multi-choice",7,600123,"0.0-7.0",40239,"group1",432286,NA,"{""Q0"":""4"",""Q1"":""6"",""Q2"":""6"",""Q3"":""1""}","high_entitlement",7,"urgency",4,6,6,1,"Male","No","24"
"307",458,49146,NA,"survey-multi-choice",8,649281,"0.0-8.0",40239,"group1",432286,NA,"{""Q0"":""4"",""Q1"":""1"",""Q2"":""1"",""Q3"":""7""}","high_entitlement",5,"institution",4,1,1,7,"Male","No","24"
"308",459,48060,NA,"survey-multi-choice",9,697357,"0.0-9.0",40239,"group1",432286,NA,"{""Q0"":""4"",""Q1"":""1"",""Q2"":""5"",""Q3"":""7""}","low_entitlement",10,"institution",4,1,5,7,"Male","No","24"
"309",460,59755,NA,"survey-multi-choice",10,757123,"0.0-10.0",40239,"group1",432286,NA,"{""Q0"":""2"",""Q1"":""3"",""Q2"":""5"",""Q3"":""5""}","high_entitlement",3,"relationship",2,3,5,5,"Male","No","24"
"310",461,33429,NA,"survey-multi-choice",11,790568,"0.0-11.0",40239,"group1",432286,NA,"{""Q0"":""4"",""Q1"":""6"",""Q2"":""3"",""Q3"":""1""}","low_entitlement",8,"urgency",4,6,3,1,"Male","No","24"
"311",467,9690,NA,"survey-multi-choice",2,253775,"0.0-2.0",41648,"group1",286923,NA,"{""Q0"":""6"",""Q1"":""7"",""Q2"":""5"",""Q3"":""6""}","high_entitlement",7,"urgency",6,7,5,6,"Male","Yes","28"
"312",468,7355,NA,"survey-multi-choice",3,261152,"0.0-3.0",41648,"group1",286923,NA,"{""Q0"":""7"",""Q1"":""6"",""Q2"":""7"",""Q3"":""5""}","low_entitlement",4,"relationship",7,6,7,5,"Male","Yes","28"
"313",469,10546,NA,"survey-multi-choice",4,271719,"0.0-4.0",41648,"group1",286923,NA,"{""Q0"":""7"",""Q1"":""5"",""Q2"":""7"",""Q3"":""6""}","high_entitlement",5,"institution",7,5,7,6,"Male","Yes","28"
"314",470,7895,NA,"survey-multi-choice",5,279639,"0.0-5.0",41648,"group1",286923,NA,"{""Q0"":""6"",""Q1"":""7"",""Q2"":""6"",""Q3"":""7""}","low_entitlement",8,"urgency",6,7,6,7,"Male","Yes","28"
"315",471,11176,NA,"survey-multi-choice",6,290839,"0.0-6.0",41648,"group1",286923,NA,"{""Q0"":""7"",""Q1"":""6"",""Q2"":""7"",""Q3"":""6""}","low_entitlement",2,"interaction",7,6,7,6,"Male","Yes","28"
"316",472,8258,NA,"survey-multi-choice",7,299118,"0.0-7.0",41648,"group1",286923,NA,"{""Q0"":""6"",""Q1"":""7"",""Q2"":""6"",""Q3"":""7""}","low_entitlement",6,"institution",6,7,6,7,"Male","Yes","28"
"317",473,11512,NA,"survey-multi-choice",8,310665,"0.0-8.0",41648,"group1",286923,NA,"{""Q0"":"""",""Q1"":""6"",""Q2"":""7"",""Q3"":""6""}","high_entitlement",3,"relationship",NA,6,7,6,"Male","Yes","28"
"318",474,9984,NA,"survey-multi-choice",9,320679,"0.0-9.0",41648,"group1",286923,NA,"{""Q0"":""6"",""Q1"":""7"",""Q2"":""5"",""Q3"":""6""}","low_entitlement",10,"institution",6,7,5,6,"Male","Yes","28"
"319",475,8691,NA,"survey-multi-choice",10,329398,"0.0-10.0",41648,"group1",286923,NA,"{""Q0"":""6"",""Q1"":""7"",""Q2"":""6"",""Q3"":""4""}","high_entitlement",9,"urgency",6,7,6,4,"Male","Yes","28"
"320",476,6070,NA,"survey-multi-choice",11,335494,"0.0-11.0",41648,"group1",286923,NA,"{""Q0"":""6"",""Q1"":""5"",""Q2"":""6"",""Q3"":""7""}","high_entitlement",1,"interaction",6,5,6,7,"Male","Yes","28"
"321",482,99929,NA,"survey-multi-choice",2,113887,"0.0-2.0",427,"group2",60921,NA,"{""Q0"":""5"",""Q1"":""5"",""Q2"":""6"",""Q3"":""4""}","low_entitlement",1,"interaction",5,5,6,4,"Female","Yes","29"
"322",483,31983,NA,"survey-multi-choice",3,145879,"0.0-3.0",427,"group2",60921,NA,"{""Q0"":""7"",""Q1"":""1"",""Q2"":""3"",""Q3"":""7""}","high_entitlement",6,"institution",7,1,3,7,"Female","Yes","29"
"323",484,13577,NA,"survey-multi-choice",4,159463,"0.0-4.0",427,"group2",60921,NA,"{""Q0"":""6"",""Q1"":""6"",""Q2"":""5"",""Q3"":""7""}","high_entitlement",2,"interaction",6,6,5,7,"Female","Yes","29"
"324",485,38675,NA,"survey-multi-choice",5,198145,"0.0-5.0",427,"group2",60921,NA,"{""Q0"":""4"",""Q1"":""7"",""Q2"":""2"",""Q3"":""7""}","low_entitlement",9,"urgency",4,7,2,7,"Female","Yes","29"
"325",486,16087,NA,"survey-multi-choice",6,214237,"0.0-6.0",427,"group2",60921,NA,"{""Q0"":""5"",""Q1"":""7"",""Q2"":""4"",""Q3"":""7""}","low_entitlement",7,"urgency",5,7,4,7,"Female","Yes","29"
"326",487,13771,NA,"survey-multi-choice",7,228015,"0.0-7.0",427,"group2",60921,NA,"{""Q0"":""7"",""Q1"":""1"",""Q2"":""7"",""Q3"":""2""}","low_entitlement",5,"institution",7,1,7,2,"Female","Yes","29"
"327",488,40323,NA,"survey-multi-choice",8,268345,"0.0-8.0",427,"group2",60921,NA,"{""Q0"":""7"",""Q1"":""2"",""Q2"":""5"",""Q3"":""7""}","low_entitlement",3,"relationship",7,2,5,7,"Female","Yes","29"
"328",489,16702,NA,"survey-multi-choice",9,285057,"0.0-9.0",427,"group2",60921,NA,"{""Q0"":""5"",""Q1"":""6"",""Q2"":""3"",""Q3"":""7""}","high_entitlement",8,"urgency",5,6,3,7,"Female","Yes","29"
"329",490,26487,NA,"survey-multi-choice",10,311553,"0.0-10.0",427,"group2",60921,NA,"{""Q0"":""5"",""Q1"":""7"",""Q2"":""1"",""Q3"":""7""}","high_entitlement",4,"relationship",5,7,1,7,"Female","Yes","29"
"330",491,21423,NA,"survey-multi-choice",11,332982,"0.0-11.0",427,"group2",60921,NA,"{""Q0"":""7"",""Q1"":""1"",""Q2"":""5"",""Q3"":""7""}","high_entitlement",10,"institution",7,1,5,7,"Female","Yes","29"
"331",497,31023,NA,"survey-multi-choice",2,72602,"0.0-2.0",4323,"group1",80619,NA,"{""Q0"":""3"",""Q1"":""1"",""Q2"":""2"",""Q3"":""7""}","low_entitlement",10,"institution",3,1,2,7,"Male","Yes","31"
"332",498,22563,NA,"survey-multi-choice",3,95170,"0.0-3.0",4323,"group1",80619,NA,"{""Q0"":""6"",""Q1"":""6"",""Q2"":""4"",""Q3"":""2""}","low_entitlement",8,"urgency",6,6,4,2,"Male","Yes","31"
"333",499,21587,NA,"survey-multi-choice",4,116776,"0.0-4.0",4323,"group1",80619,NA,"{""Q0"":""7"",""Q1"":""6"",""Q2"":""2"",""Q3"":""6""}","high_entitlement",9,"urgency",7,6,2,6,"Male","Yes","31"
"334",500,15285,NA,"survey-multi-choice",5,132066,"0.0-5.0",4323,"group1",80619,NA,"{""Q0"":""6"",""Q1"":""6"",""Q2"":""6"",""Q3"":""2""}","high_entitlement",7,"urgency",6,6,6,2,"Male","Yes","31"
"335",501,18500,NA,"survey-multi-choice",6,150586,"0.0-6.0",4323,"group1",80619,NA,"{""Q0"":""6"",""Q1"":""4"",""Q2"":""6"",""Q3"":""1""}","low_entitlement",4,"relationship",6,4,6,1,"Male","Yes","31"
"336",502,25104,NA,"survey-multi-choice",7,175714,"0.0-7.0",4323,"group1",80619,NA,"{""Q0"":""5"",""Q1"":""1"",""Q2"":""2"",""Q3"":""6""}","low_entitlement",6,"institution",5,1,2,6,"Male","Yes","31"
"337",503,17270,NA,"survey-multi-choice",8,193003,"0.0-8.0",4323,"group1",80619,NA,"{""Q0"":""7"",""Q1"":""6"",""Q2"":""6"",""Q3"":""1""}","low_entitlement",2,"interaction",7,6,6,1,"Male","Yes","31"
"338",504,19699,NA,"survey-multi-choice",9,212722,"0.0-9.0",4323,"group1",80619,NA,"{""Q0"":""2"",""Q1"":""5"",""Q2"":""6"",""Q3"":""5""}","high_entitlement",3,"relationship",2,5,6,5,"Male","Yes","31"
"339",505,20841,NA,"survey-multi-choice",10,233584,"0.0-10.0",4323,"group1",80619,NA,"{""Q0"":""4"",""Q1"":""5"",""Q2"":""3"",""Q3"":""6""}","high_entitlement",1,"interaction",4,5,3,6,"Male","Yes","31"
"340",506,18158,NA,"survey-multi-choice",11,251746,"0.0-11.0",4323,"group1",80619,NA,"{""Q0"":""6"",""Q1"":""1"",""Q2"":""2"",""Q3"":""7""}","high_entitlement",5,"institution",6,1,2,7,"Male","Yes","31"
"341",512,27700,NA,"survey-multi-choice",2,80905,"0.0-2.0",43284,"group1",347347,NA,"{""Q0"":""1"",""Q1"":""1"",""Q2"":""1"",""Q3"":""7""}","low_entitlement",6,"institution",1,1,1,7,"Male","Yes","24"
"342",513,25047,NA,"survey-multi-choice",3,105962,"0.0-3.0",43284,"group1",347347,NA,"{""Q0"":""7"",""Q1"":""7"",""Q2"":""4"",""Q3"":""4""}","high_entitlement",9,"urgency",7,7,4,4,"Male","Yes","24"
"343",514,25641,NA,"survey-multi-choice",4,131614,"0.0-4.0",43284,"group1",347347,NA,"{""Q0"":""7"",""Q1"":""4"",""Q2"":""7"",""Q3"":""1""}","low_entitlement",2,"interaction",7,4,7,1,"Male","Yes","24"
"344",515,13158,NA,"survey-multi-choice",5,144783,"0.0-5.0",43284,"group1",347347,NA,"{""Q0"":""7"",""Q1"":""4"",""Q2"":""7"",""Q3"":""1""}","low_entitlement",4,"relationship",7,4,7,1,"Male","Yes","24"
"345",516,20864,NA,"survey-multi-choice",6,165658,"0.0-6.0",43284,"group1",347347,NA,"{""Q0"":""1"",""Q1"":""4"",""Q2"":""7"",""Q3"":""4""}","high_entitlement",3,"relationship",1,4,7,4,"Male","Yes","24"
"346",517,23578,NA,"survey-multi-choice",7,189249,"0.0-7.0",43284,"group1",347347,NA,"{""Q0"":""4"",""Q1"":""7"",""Q2"":""7"",""Q3"":""7""}","high_entitlement",1,"interaction",4,7,7,7,"Male","Yes","24"
"347",518,20002,NA,"survey-multi-choice",8,209261,"0.0-8.0",43284,"group1",347347,NA,"{""Q0"":""4"",""Q1"":""1"",""Q2"":""7"",""Q3"":""7""}","high_entitlement",5,"institution",4,1,7,7,"Male","Yes","24"
"348",519,15629,NA,"survey-multi-choice",9,224901,"0.0-9.0",43284,"group1",347347,NA,"{""Q0"":""7"",""Q1"":""7"",""Q2"":""7"",""Q3"":""4""}","high_entitlement",7,"urgency",7,7,7,4,"Male","Yes","24"
"349",520,11786,NA,"survey-multi-choice",10,236699,"0.0-10.0",43284,"group1",347347,NA,"{""Q0"":""1"",""Q1"":""1"",""Q2"":""1"",""Q3"":""7""}","low_entitlement",10,"institution",1,1,1,7,"Male","Yes","24"
"350",521,15709,NA,"survey-multi-choice",11,252419,"0.0-11.0",43284,"group1",347347,NA,"{""Q0"":""7"",""Q1"":""4"",""Q2"":""4"",""Q3"":""1""}","low_entitlement",8,"urgency",7,4,4,1,"Male","Yes","24"
"351",527,22042,NA,"survey-multi-choice",2,319740,"0.0-2.0",44313,"group2",890142,NA,"{""Q0"":""7"",""Q1"":""6"",""Q2"":""7"",""Q3"":""6""}","low_entitlement",5,"institution",7,6,7,6,"Female","No","26"
"352",528,8841,NA,"survey-multi-choice",3,328601,"0.0-3.0",44313,"group2",890142,NA,"{""Q0"":""6"",""Q1"":""6"",""Q2"":""6"",""Q3"":""7""}","high_entitlement",2,"interaction",6,6,6,7,"Female","No","26"
"353",529,340,NA,"survey-multi-choice",4,328962,"0.0-4.0",44313,"group2",890142,NA,"{""Q0"":"""",""Q1"":"""",""Q2"":"""",""Q3"":""""}","low_entitlement",7,"urgency",NA,NA,NA,NA,"Female","No","26"
"354",530,30413,NA,"survey-multi-choice",5,359400,"0.0-5.0",44313,"group2",890142,NA,"{""Q0"":""7"",""Q1"":""6"",""Q2"":""6"",""Q3"":""7""}","low_entitlement",3,"relationship",7,6,6,7,"Female","No","26"
"355",531,590,NA,"survey-multi-choice",6,360009,"0.0-6.0",44313,"group2",890142,NA,"{""Q0"":"""",""Q1"":"""",""Q2"":"""",""Q3"":""""}","low_entitlement",1,"interaction",NA,NA,NA,NA,"Female","No","26"
"356",532,189226,NA,"survey-multi-choice",7,549260,"0.0-7.0",44313,"group2",890142,NA,"{""Q0"":""7"",""Q1"":""6"",""Q2"":""7"",""Q3"":""6""}","low_entitlement",9,"urgency",7,6,7,6,"Female","No","26"
"357",533,20410,NA,"survey-multi-choice",8,569697,"0.0-8.0",44313,"group2",890142,NA,"{""Q0"":""7"",""Q1"":""6"",""Q2"":""7"",""Q3"":""6""}","high_entitlement",6,"institution",7,6,7,6,"Female","No","26"
"358",534,8954,NA,"survey-multi-choice",9,578673,"0.0-9.0",44313,"group2",890142,NA,"{""Q0"":""6"",""Q1"":""7"",""Q2"":""6"",""Q3"":""6""}","high_entitlement",8,"urgency",6,7,6,6,"Female","No","26"
"359",535,18994,NA,"survey-multi-choice",10,597676,"0.0-10.0",44313,"group2",890142,NA,"{""Q0"":""7"",""Q1"":""5"",""Q2"":""5"",""Q3"":""6""}","high_entitlement",4,"relationship",7,5,5,6,"Female","No","26"
"360",536,8698,NA,"survey-multi-choice",11,606397,"0.0-11.0",44313,"group2",890142,NA,"{""Q0"":""5"",""Q1"":""6"",""Q2"":""7"",""Q3"":""6""}","high_entitlement",10,"institution",5,6,7,6,"Female","No","26"
"361",542,39421,NA,"survey-multi-choice",2,501825,"0.0-2.0",44320,"group2",181588,NA,"{""Q0"":""5"",""Q1"":""4"",""Q2"":""4"",""Q3"":""6""}","low_entitlement",3,"relationship",5,4,4,6,"Male","Yes","27"
"362",543,25231,NA,"survey-multi-choice",3,527075,"0.0-3.0",44320,"group2",181588,NA,"{""Q0"":""5"",""Q1"":""5"",""Q2"":""4"",""Q3"":""7""}","high_entitlement",2,"interaction",5,5,4,7,"Male","Yes","27"
"363",544,19643,NA,"survey-multi-choice",4,546737,"0.0-4.0",44320,"group2",181588,NA,"{""Q0"":""4"",""Q1"":""6"",""Q2"":""5"",""Q3"":""3""}","low_entitlement",7,"urgency",4,6,5,3,"Male","Yes","27"
"364",545,33085,NA,"survey-multi-choice",5,579842,"0.0-5.0",44320,"group2",181588,NA,"{""Q0"":""5"",""Q1"":""4"",""Q2"":""4"",""Q3"":""4""}","high_entitlement",8,"urgency",5,4,4,4,"Male","Yes","27"
"365",546,33712,NA,"survey-multi-choice",6,613571,"0.0-6.0",44320,"group2",181588,NA,"{""Q0"":""4"",""Q1"":""5"",""Q2"":""4"",""Q3"":""4""}","low_entitlement",1,"interaction",4,5,4,4,"Male","Yes","27"
"366",547,26190,NA,"survey-multi-choice",7,639778,"0.0-7.0",44320,"group2",181588,NA,"{""Q0"":""4"",""Q1"":""5"",""Q2"":""2"",""Q3"":""4""}","low_entitlement",9,"urgency",4,5,2,4,"Male","Yes","27"
"367",548,30902,NA,"survey-multi-choice",8,670695,"0.0-8.0",44320,"group2",181588,NA,"{""Q0"":""5"",""Q1"":""2"",""Q2"":""3"",""Q3"":""7""}","high_entitlement",10,"institution",5,2,3,7,"Male","Yes","27"
"368",549,35528,NA,"survey-multi-choice",9,706251,"0.0-9.0",44320,"group2",181588,NA,"{""Q0"":""6"",""Q1"":""2"",""Q2"":""3"",""Q3"":""5""}","low_entitlement",5,"institution",6,2,3,5,"Male","Yes","27"
"369",550,20597,NA,"survey-multi-choice",10,726866,"0.0-10.0",44320,"group2",181588,NA,"{""Q0"":""4"",""Q1"":""7"",""Q2"":""3"",""Q3"":""5""}","high_entitlement",4,"relationship",4,7,3,5,"Male","Yes","27"
"370",551,94113,NA,"survey-multi-choice",11,821015,"0.0-11.0",44320,"group2",181588,NA,"{""Q0"":""7"",""Q1"":""1"",""Q2"":""3"",""Q3"":""5""}","high_entitlement",6,"institution",7,1,3,5,"Male","Yes","27"
"371",557,65812,NA,"survey-multi-choice",2,152796,"0.0-2.0",44956,"group2",472997,NA,"{""Q0"":""4"",""Q1"":""7"",""Q2"":""6"",""Q3"":""6""}","low_entitlement",7,"urgency",4,7,6,6,"Male","Yes","28"
"372",558,75275,NA,"survey-multi-choice",3,228077,"0.0-3.0",44956,"group2",472997,NA,"{""Q0"":""7"",""Q1"":""2"",""Q2"":""2"",""Q3"":""6""}","low_entitlement",5,"institution",7,2,2,6,"Male","Yes","28"
"373",559,52945,NA,"survey-multi-choice",4,281026,"0.0-4.0",44956,"group2",472997,NA,"{""Q0"":""7"",""Q1"":""5"",""Q2"":""2"",""Q3"":""5""}","low_entitlement",3,"relationship",7,5,2,5,"Male","Yes","28"
"374",560,19176,NA,"survey-multi-choice",5,300206,"0.0-5.0",44956,"group2",472997,NA,"{""Q0"":""7"",""Q1"":""4"",""Q2"":""5"",""Q3"":""3""}","high_entitlement",6,"institution",7,4,5,3,"Male","Yes","28"
"375",561,68612,NA,"survey-multi-choice",6,368822,"0.0-6.0",44956,"group2",472997,NA,"{""Q0"":""7"",""Q1"":""7"",""Q2"":""6"",""Q3"":""6""}","high_entitlement",8,"urgency",7,7,6,6,"Male","Yes","28"
"376",562,23055,NA,"survey-multi-choice",7,391882,"0.0-7.0",44956,"group2",472997,NA,"{""Q0"":""3"",""Q1"":""7"",""Q2"":""2"",""Q3"":""7""}","high_entitlement",2,"interaction",3,7,2,7,"Male","Yes","28"
"377",563,71415,NA,"survey-multi-choice",8,463303,"0.0-8.0",44956,"group2",472997,NA,"{""Q0"":""7"",""Q1"":""6"",""Q2"":""6"",""Q3"":""7""}","high_entitlement",10,"institution",7,6,6,7,"Male","Yes","28"
"378",564,35663,NA,"survey-multi-choice",9,498971,"0.0-9.0",44956,"group2",472997,NA,"{""Q0"":""4"",""Q1"":""7"",""Q2"":""5"",""Q3"":""4""}","low_entitlement",9,"urgency",4,7,5,4,"Male","Yes","28"
"379",565,88838,NA,"survey-multi-choice",10,587814,"0.0-10.0",44956,"group2",472997,NA,"{""Q0"":""4"",""Q1"":""7"",""Q2"":""4"",""Q3"":""6""}","low_entitlement",1,"interaction",4,7,4,6,"Male","Yes","28"
"380",566,15699,NA,"survey-multi-choice",11,603517,"0.0-11.0",44956,"group2",472997,NA,"{""Q0"":""4"",""Q1"":""7"",""Q2"":""3"",""Q3"":""7""}","high_entitlement",4,"relationship",4,7,3,7,"Male","Yes","28"
"381",572,28908,NA,"survey-multi-choice",2,67028,"0.0-2.0",4677,"group2",225725,NA,"{""Q0"":""5"",""Q1"":""6"",""Q2"":""5"",""Q3"":""4""}","low_entitlement",7,"urgency",5,6,5,4,"Female","Yes","45"
"382",573,26146,NA,"survey-multi-choice",3,93186,"0.0-3.0",4677,"group2",225725,NA,"{""Q0"":""4"",""Q1"":""7"",""Q2"":""5"",""Q3"":""7""}","high_entitlement",4,"relationship",4,7,5,7,"Female","Yes","45"
"383",574,21937,NA,"survey-multi-choice",4,115136,"0.0-4.0",4677,"group2",225725,NA,"{""Q0"":""5"",""Q1"":""1"",""Q2"":""3"",""Q3"":""7""}","high_entitlement",10,"institution",5,1,3,7,"Female","Yes","45"
"384",575,21103,NA,"survey-multi-choice",5,136254,"0.0-5.0",4677,"group2",225725,NA,"{""Q0"":""5"",""Q1"":""6"",""Q2"":""4"",""Q3"":""6""}","high_entitlement",8,"urgency",5,6,4,6,"Female","Yes","45"
"385",576,19239,NA,"survey-multi-choice",6,155504,"0.0-6.0",4677,"group2",225725,NA,"{""Q0"":""5"",""Q1"":""6"",""Q2"":""5"",""Q3"":""7""}","high_entitlement",2,"interaction",5,6,5,7,"Female","Yes","45"
"386",577,16562,NA,"survey-multi-choice",7,172081,"0.0-7.0",4677,"group2",225725,NA,"{""Q0"":""6"",""Q1"":""1"",""Q2"":""3"",""Q3"":""7""}","high_entitlement",6,"institution",6,1,3,7,"Female","Yes","45"
"387",578,22130,NA,"survey-multi-choice",8,194224,"0.0-8.0",4677,"group2",225725,NA,"{""Q0"":""7"",""Q1"":""1"",""Q2"":""4"",""Q3"":""6""}","low_entitlement",3,"relationship",7,1,4,6,"Female","Yes","45"
"388",579,14662,NA,"survey-multi-choice",9,208897,"0.0-9.0",4677,"group2",225725,NA,"{""Q0"":""7"",""Q1"":""1"",""Q2"":""5"",""Q3"":""5""}","low_entitlement",5,"institution",7,1,5,5,"Female","Yes","45"
"389",580,17102,NA,"survey-multi-choice",10,226010,"0.0-10.0",4677,"group2",225725,NA,"{""Q0"":""4"",""Q1"":""6"",""Q2"":""2"",""Q3"":""6""}","low_entitlement",9,"urgency",4,6,2,6,"Female","Yes","45"
"390",581,18265,NA,"survey-multi-choice",11,244288,"0.0-11.0",4677,"group2",225725,NA,"{""Q0"":""5"",""Q1"":""3"",""Q2"":""6"",""Q3"":""3""}","low_entitlement",1,"interaction",5,3,6,3,"Female","Yes","45"
"391",587,94819,NA,"survey-multi-choice",2,119404,"0.0-2.0",46809,"group2",575394,NA,"{""Q0"":""4"",""Q1"":""6"",""Q2"":""1"",""Q3"":""1""}","low_entitlement",9,"urgency",4,6,1,1,"Female","Yes","38"
"392",588,1090234,NA,"survey-multi-choice",3,1209647,"0.0-3.0",46809,"group2",575394,NA,"{""Q0"":""5"",""Q1"":""5"",""Q2"":""3"",""Q3"":""2""}","low_entitlement",7,"urgency",5,5,3,2,"Female","Yes","38"
"393",589,33685,NA,"survey-multi-choice",4,1243343,"0.0-4.0",46809,"group2",575394,NA,"{""Q0"":""6"",""Q1"":""2"",""Q2"":""3"",""Q3"":""2""}","high_entitlement",6,"institution",6,2,3,2,"Female","Yes","38"
"394",590,14950,NA,"survey-multi-choice",5,1258304,"0.0-5.0",46809,"group2",575394,NA,"{""Q0"":""6"",""Q1"":""7"",""Q2"":""5"",""Q3"":""4""}","high_entitlement",4,"relationship",6,7,5,4,"Female","Yes","38"
"395",591,26045,NA,"survey-multi-choice",6,1284365,"0.0-6.0",46809,"group2",575394,NA,"{""Q0"":""6"",""Q1"":""1"",""Q2"":""1"",""Q3"":""6""}","high_entitlement",10,"institution",6,1,1,6,"Female","Yes","38"
"396",592,21521,NA,"survey-multi-choice",7,1305895,"0.0-7.0",46809,"group2",575394,NA,"{""Q0"":""6"",""Q1"":""2"",""Q2"":""1"",""Q3"":""5""}","low_entitlement",3,"relationship",6,2,1,5,"Female","Yes","38"
"397",593,36804,NA,"survey-multi-choice",8,1342708,"0.0-8.0",46809,"group2",575394,NA,"{""Q0"":""6"",""Q1"":""6"",""Q2"":""4"",""Q3"":""3""}","high_entitlement",8,"urgency",6,6,4,3,"Female","Yes","38"
"398",594,23616,NA,"survey-multi-choice",9,1366334,"0.0-9.0",46809,"group2",575394,NA,"{""Q0"":""5"",""Q1"":""1"",""Q2"":""6"",""Q3"":""2""}","low_entitlement",5,"institution",5,1,6,2,"Female","Yes","38"
"399",595,24666,NA,"survey-multi-choice",10,1391011,"0.0-10.0",46809,"group2",575394,NA,"{""Q0"":""4"",""Q1"":""6"",""Q2"":""5"",""Q3"":""3""}","low_entitlement",1,"interaction",4,6,5,3,"Female","Yes","38"
"400",596,15601,NA,"survey-multi-choice",11,1406621,"0.0-11.0",46809,"group2",575394,NA,"{""Q0"":""4"",""Q1"":""7"",""Q2"":""6"",""Q3"":""5""}","high_entitlement",2,"interaction",4,7,6,5,"Female","Yes","38"
"401",602,68402,NA,"survey-multi-choice",2,96675,"0.0-2.0",46820,"group1",417154,NA,"{""Q0"":""6"",""Q1"":""4"",""Q2"":""7"",""Q3"":""3""}","low_entitlement",6,"institution",6,4,7,3,"Male","Yes","30"
"402",603,41056,NA,"survey-multi-choice",3,137759,"0.0-3.0",46820,"group1",417154,NA,"{""Q0"":""7"",""Q1"":""7"",""Q2"":""3"",""Q3"":""6""}","high_entitlement",3,"relationship",7,7,3,6,"Male","Yes","30"
"403",604,37762,NA,"survey-multi-choice",4,175533,"0.0-4.0",46820,"group1",417154,NA,"{""Q0"":""7"",""Q1"":""7"",""Q2"":""1"",""Q3"":""7""}","low_entitlement",8,"urgency",7,7,1,7,"Male","Yes","30"
"404",605,20836,NA,"survey-multi-choice",5,196385,"0.0-5.0",46820,"group1",417154,NA,"{""Q0"":""6"",""Q1"":""6"",""Q2"":""4"",""Q3"":""3""}","high_entitlement",7,"urgency",6,6,4,3,"Male","Yes","30"
"405",606,27842,NA,"survey-multi-choice",6,224253,"0.0-6.0",46820,"group1",417154,NA,"{""Q0"":""7"",""Q1"":""7"",""Q2"":""1"",""Q3"":""7""}","low_entitlement",4,"relationship",7,7,1,7,"Male","Yes","30"
"406",607,20369,NA,"survey-multi-choice",7,244637,"0.0-7.0",46820,"group1",417154,NA,"{""Q0"":""6"",""Q1"":""6"",""Q2"":""3"",""Q3"":""5""}","high_entitlement",9,"urgency",6,6,3,5,"Male","Yes","30"
"407",608,14305,NA,"survey-multi-choice",8,258958,"0.0-8.0",46820,"group1",417154,NA,"{""Q0"":""7"",""Q1"":""7"",""Q2"":""4"",""Q3"":""4""}","low_entitlement",10,"institution",7,7,4,4,"Male","Yes","30"
"408",609,15634,NA,"survey-multi-choice",9,274605,"0.0-9.0",46820,"group1",417154,NA,"{""Q0"":""5"",""Q1"":""4"",""Q2"":""4"",""Q3"":""4""}","high_entitlement",1,"interaction",5,4,4,4,"Male","Yes","30"
"409",610,21638,NA,"survey-multi-choice",10,296256,"0.0-10.0",46820,"group1",417154,NA,"{""Q0"":""4"",""Q1"":""4"",""Q2"":""4"",""Q3"":""4""}","low_entitlement",2,"interaction",4,4,4,4,"Male","Yes","30"
"410",611,12385,NA,"survey-multi-choice",11,308669,"0.0-11.0",46820,"group1",417154,NA,"{""Q0"":""7"",""Q1"":""7"",""Q2"":""4"",""Q3"":""4""}","high_entitlement",5,"institution",7,7,4,4,"Male","Yes","30"
"411",617,4236,NA,"survey-multi-choice",2,10142,"0.0-2.0",47648,"group1",601328,NA,"{""Q0"":""5"",""Q1"":""6"",""Q2"":""6"",""Q3"":""7""}","low_entitlement",6,"institution",5,6,6,7,"Male","Yes","25"
"412",618,3835,NA,"survey-multi-choice",3,13981,"0.0-3.0",47648,"group1",601328,NA,"{""Q0"":""5"",""Q1"":""6"",""Q2"":""5"",""Q3"":""6""}","low_entitlement",8,"urgency",5,6,5,6,"Male","Yes","25"
"413",619,4051,NA,"survey-multi-choice",4,18037,"0.0-4.0",47648,"group1",601328,NA,"{""Q0"":""6"",""Q1"":""5"",""Q2"":""5"",""Q3"":""6""}","high_entitlement",7,"urgency",6,5,5,6,"Male","Yes","25"
"414",620,4793,NA,"survey-multi-choice",5,22835,"0.0-5.0",47648,"group1",601328,NA,"{""Q0"":""6"",""Q1"":""6"",""Q2"":""5"",""Q3"":""6""}","high_entitlement",9,"urgency",6,6,5,6,"Male","Yes","25"
"415",621,4917,NA,"survey-multi-choice",6,27758,"0.0-6.0",47648,"group1",601328,NA,"{""Q0"":""6"",""Q1"":""6"",""Q2"":""5"",""Q3"":""5""}","low_entitlement",10,"institution",6,6,5,5,"Male","Yes","25"
"416",622,4254,NA,"survey-multi-choice",7,32017,"0.0-7.0",47648,"group1",601328,NA,"{""Q0"":""6"",""Q1"":""5"",""Q2"":""5"",""Q3"":""4""}","high_entitlement",1,"interaction",6,5,5,4,"Male","Yes","25"
"417",623,6897,NA,"survey-multi-choice",8,38920,"0.0-8.0",47648,"group1",601328,NA,"{""Q0"":""5"",""Q1"":""6"",""Q2"":""5"",""Q3"":""6""}","high_entitlement",5,"institution",5,6,5,6,"Male","Yes","25"
"418",624,4231,NA,"survey-multi-choice",9,43155,"0.0-9.0",47648,"group1",601328,NA,"{""Q0"":""6"",""Q1"":""5"",""Q2"":""5"",""Q3"":""6""}","low_entitlement",4,"relationship",6,5,5,6,"Male","Yes","25"
"419",625,5837,NA,"survey-multi-choice",10,48997,"0.0-10.0",47648,"group1",601328,NA,"{""Q0"":""6"",""Q1"":""5"",""Q2"":""5"",""Q3"":""6""}","high_entitlement",3,"relationship",6,5,5,6,"Male","Yes","25"
"420",626,5881,NA,"survey-multi-choice",11,54883,"0.0-11.0",47648,"group1",601328,NA,"{""Q0"":""6"",""Q1"":""5"",""Q2"":""5"",""Q3"":""6""}","low_entitlement",2,"interaction",6,5,5,6,"Male","Yes","25"
"421",632,22991,NA,"survey-multi-choice",2,31117,"0.0-2.0",51200,"group2",301760,NA,"{""Q0"":""5"",""Q1"":""6"",""Q2"":""5"",""Q3"":""4""}","low_entitlement",1,"interaction",5,6,5,4,"Female","Yes","70"
"422",633,46464,NA,"survey-multi-choice",3,77618,"0.0-3.0",51200,"group2",301760,NA,"{""Q0"":""6"",""Q1"":""6"",""Q2"":""5"",""Q3"":""5""}","high_entitlement",2,"interaction",6,6,5,5,"Female","Yes","70"
"423",634,79746,NA,"survey-multi-choice",4,157402,"0.0-4.0",51200,"group2",301760,NA,"{""Q0"":""5"",""Q1"":""2"",""Q2"":""4"",""Q3"":""7""}","high_entitlement",6,"institution",5,2,4,7,"Female","Yes","70"
"424",635,11023,NA,"survey-multi-choice",5,168458,"0.0-5.0",51200,"group2",301760,NA,"{""Q0"":""4"",""Q1"":""5"",""Q2"":""2"",""Q3"":""4""}","low_entitlement",9,"urgency",4,5,2,4,"Female","Yes","70"
"425",636,18923,NA,"survey-multi-choice",6,187416,"0.0-6.0",51200,"group2",301760,NA,"{""Q0"":""4"",""Q1"":""7"",""Q2"":""4"",""Q3"":""7""}","high_entitlement",4,"relationship",4,7,4,7,"Female","Yes","70"
"426",637,59354,NA,"survey-multi-choice",7,246810,"0.0-7.0",51200,"group2",301760,NA,"{""Q0"":""6"",""Q1"":""4"",""Q2"":""2"",""Q3"":""6""}","low_entitlement",3,"relationship",6,4,2,6,"Female","Yes","70"
"427",638,9816,NA,"survey-multi-choice",8,256658,"0.0-8.0",51200,"group2",301760,NA,"{""Q0"":""4"",""Q1"":""2"",""Q2"":""5"",""Q3"":""5""}","low_entitlement",5,"institution",4,2,5,5,"Female","Yes","70"
"428",639,31165,NA,"survey-multi-choice",9,287860,"0.0-9.0",51200,"group2",301760,NA,"{""Q0"":""5"",""Q1"":""5"",""Q2"":""5"",""Q3"":""5""}","low_entitlement",7,"urgency",5,5,5,5,"Female","Yes","70"
"429",640,21367,NA,"survey-multi-choice",10,309261,"0.0-10.0",51200,"group2",301760,NA,"{""Q0"":""5"",""Q1"":""2"",""Q2"":""5"",""Q3"":""7""}","high_entitlement",10,"institution",5,2,5,7,"Female","Yes","70"
"430",641,40196,NA,"survey-multi-choice",11,349491,"0.0-11.0",51200,"group2",301760,NA,"{""Q0"":""4"",""Q1"":""6"",""Q2"":""4"",""Q3"":""6""}","high_entitlement",8,"urgency",4,6,4,6,"Female","Yes","70"
"431",647,45168,NA,"survey-multi-choice",2,81925,"0.0-2.0",51281,"group1",907756,NA,"{""Q0"":""4"",""Q1"":""2"",""Q2"":""3"",""Q3"":""5""}","low_entitlement",10,"institution",4,2,3,5,"Female","Yes","34"
"432",648,24334,NA,"survey-multi-choice",3,106265,"0.0-3.0",51281,"group1",907756,NA,"{""Q0"":""5"",""Q1"":""4"",""Q2"":""3"",""Q3"":""4""}","low_entitlement",8,"urgency",5,4,3,4,"Female","Yes","34"
"433",649,24500,NA,"survey-multi-choice",4,130774,"0.0-4.0",51281,"group1",907756,NA,"{""Q0"":""6"",""Q1"":""4"",""Q2"":""6"",""Q3"":""2""}","high_entitlement",7,"urgency",6,4,6,2,"Female","Yes","34"
"434",650,28505,NA,"survey-multi-choice",5,159287,"0.0-5.0",51281,"group1",907756,NA,"{""Q0"":""4"",""Q1"":""1"",""Q2"":""1"",""Q3"":""7""}","high_entitlement",5,"institution",4,1,1,7,"Female","Yes","34"
"435",651,37907,NA,"survey-multi-choice",6,197199,"0.0-6.0",51281,"group1",907756,NA,"{""Q0"":""2"",""Q1"":""3"",""Q2"":""3"",""Q3"":""6""}","high_entitlement",3,"relationship",2,3,3,6,"Female","Yes","34"
"436",652,28860,NA,"survey-multi-choice",7,226066,"0.0-7.0",51281,"group1",907756,NA,"{""Q0"":""6"",""Q1"":""3"",""Q2"":""5"",""Q3"":""2""}","low_entitlement",4,"relationship",6,3,5,2,"Female","Yes","34"
"437",653,18858,NA,"survey-multi-choice",8,244933,"0.0-8.0",51281,"group1",907756,NA,"{""Q0"":""4"",""Q1"":""1"",""Q2"":""1"",""Q3"":""7""}","low_entitlement",6,"institution",4,1,1,7,"Female","Yes","34"
"438",654,22895,NA,"survey-multi-choice",9,267834,"0.0-9.0",51281,"group1",907756,NA,"{""Q0"":""5"",""Q1"":""4"",""Q2"":""1"",""Q3"":""6""}","high_entitlement",9,"urgency",5,4,1,6,"Female","Yes","34"
"439",655,24274,NA,"survey-multi-choice",10,292114,"0.0-10.0",51281,"group1",907756,NA,"{""Q0"":""3"",""Q1"":""4"",""Q2"":""3"",""Q3"":""4""}","high_entitlement",1,"interaction",3,4,3,4,"Female","Yes","34"
"440",656,25003,NA,"survey-multi-choice",11,317124,"0.0-11.0",51281,"group1",907756,NA,"{""Q0"":""6"",""Q1"":""4"",""Q2"":""4"",""Q3"":""2""}","low_entitlement",2,"interaction",6,4,4,2,"Female","Yes","34"
"441",662,39457,NA,"survey-multi-choice",2,55934,"0.0-2.0",52984,"group2",848905,NA,"{""Q0"":""6"",""Q1"":""5"",""Q2"":""2"",""Q3"":""7""}","high_entitlement",8,"urgency",6,5,2,7,"Male","Yes","25"
"442",663,20876,NA,"survey-multi-choice",3,76816,"0.0-3.0",52984,"group2",848905,NA,"{""Q0"":""7"",""Q1"":""1"",""Q2"":""1"",""Q3"":""7""}","high_entitlement",6,"institution",7,1,1,7,"Male","Yes","25"
"443",664,23644,NA,"survey-multi-choice",4,100470,"0.0-4.0",52984,"group2",848905,NA,"{""Q0"":""4"",""Q1"":""6"",""Q2"":""1"",""Q3"":""2""}","low_entitlement",9,"urgency",4,6,1,2,"Male","Yes","25"
"444",665,27740,NA,"survey-multi-choice",5,128216,"0.0-5.0",52984,"group2",848905,NA,"{""Q0"":""5"",""Q1"":""6"",""Q2"":""5"",""Q3"":""3""}","low_entitlement",7,"urgency",5,6,5,3,"Male","Yes","25"
"445",666,21624,NA,"survey-multi-choice",6,149846,"0.0-6.0",52984,"group2",848905,NA,"{""Q0"":""5"",""Q1"":""7"",""Q2"":""4"",""Q3"":""6""}","high_entitlement",4,"relationship",5,7,4,6,"Male","Yes","25"
"446",667,23914,NA,"survey-multi-choice",7,173766,"0.0-7.0",52984,"group2",848905,NA,"{""Q0"":""5"",""Q1"":""4"",""Q2"":""5"",""Q3"":""7""}","high_entitlement",2,"interaction",5,4,5,7,"Male","Yes","25"
"447",668,23273,NA,"survey-multi-choice",8,197046,"0.0-8.0",52984,"group2",848905,NA,"{""Q0"":""4"",""Q1"":""5"",""Q2"":""7"",""Q3"":""1""}","low_entitlement",1,"interaction",4,5,7,1,"Male","Yes","25"
"448",669,15170,NA,"survey-multi-choice",9,212222,"0.0-9.0",52984,"group2",848905,NA,"{""Q0"":""7"",""Q1"":""1"",""Q2"":""2"",""Q3"":""7""}","high_entitlement",10,"institution",7,1,2,7,"Male","Yes","25"
"449",670,16537,NA,"survey-multi-choice",10,228767,"0.0-10.0",52984,"group2",848905,NA,"{""Q0"":""7"",""Q1"":""1"",""Q2"":""1"",""Q3"":""6""}","low_entitlement",5,"institution",7,1,1,6,"Male","Yes","25"
"450",671,16914,NA,"survey-multi-choice",11,245686,"0.0-11.0",52984,"group2",848905,NA,"{""Q0"":""7"",""Q1"":""2"",""Q2"":""4"",""Q3"":""7""}","low_entitlement",3,"relationship",7,2,4,7,"Male","Yes","25"
"451",677,24580,NA,"survey-multi-choice",2,75365,"0.0-2.0",53586,"group2",603712,NA,"{""Q0"":""5"",""Q1"":""1"",""Q2"":""1"",""Q3"":""7""}","high_entitlement",10,"institution",5,1,1,7,"Male","Yes","39"
"452",678,22721,NA,"survey-multi-choice",3,98094,"0.0-3.0",53586,"group2",603712,NA,"{""Q0"":""7"",""Q1"":""1"",""Q2"":""3"",""Q3"":""6""}","low_entitlement",3,"relationship",7,1,3,6,"Male","Yes","39"
"453",679,18584,NA,"survey-multi-choice",4,116684,"0.0-4.0",53586,"group2",603712,NA,"{""Q0"":""3"",""Q1"":""7"",""Q2"":""1"",""Q3"":""7""}","high_entitlement",4,"relationship",3,7,1,7,"Male","Yes","39"
"454",680,16909,NA,"survey-multi-choice",5,133600,"0.0-5.0",53586,"group2",603712,NA,"{""Q0"":""1"",""Q1"":""7"",""Q2"":""1"",""Q3"":""6""}","low_entitlement",9,"urgency",1,7,1,6,"Male","Yes","39"
"455",681,32966,NA,"survey-multi-choice",6,166575,"0.0-6.0",53586,"group2",603712,NA,"{""Q0"":""4"",""Q1"":""6"",""Q2"":""4"",""Q3"":""7""}","high_entitlement",2,"interaction",4,6,4,7,"Male","Yes","39"
"456",682,19120,NA,"survey-multi-choice",7,185703,"0.0-7.0",53586,"group2",603712,NA,"{""Q0"":""5"",""Q1"":""1"",""Q2"":""2"",""Q3"":""7""}","high_entitlement",6,"institution",5,1,2,7,"Male","Yes","39"
"457",683,27716,NA,"survey-multi-choice",8,213425,"0.0-8.0",53586,"group2",603712,NA,"{""Q0"":""5"",""Q1"":""5"",""Q2"":""5"",""Q3"":""3""}","low_entitlement",1,"interaction",5,5,5,3,"Male","Yes","39"
"458",684,19949,NA,"survey-multi-choice",9,233380,"0.0-9.0",53586,"group2",603712,NA,"{""Q0"":""3"",""Q1"":""7"",""Q2"":""2"",""Q3"":""5""}","low_entitlement",7,"urgency",3,7,2,5,"Male","Yes","39"
"459",685,13897,NA,"survey-multi-choice",10,247285,"0.0-10.0",53586,"group2",603712,NA,"{""Q0"":""7"",""Q1"":""1"",""Q2"":""4"",""Q3"":""7""}","low_entitlement",5,"institution",7,1,4,7,"Male","Yes","39"
"460",686,21982,NA,"survey-multi-choice",11,269276,"0.0-11.0",53586,"group2",603712,NA,"{""Q0"":""5"",""Q1"":""7"",""Q2"":""4"",""Q3"":""6""}","high_entitlement",8,"urgency",5,7,4,6,"Male","Yes","39"
"461",692,26352,NA,"survey-multi-choice",2,49364,"0.0-2.0",53991,"group1",225872,NA,"{""Q0"":""7"",""Q1"":""7"",""Q2"":"""",""Q3"":""2""}","high_entitlement",7,"urgency",7,7,NA,2,"Male","Yes","21"
"462",693,309072,NA,"survey-multi-choice",3,358443,"0.0-3.0",53991,"group1",225872,NA,"{""Q0"":""5"",""Q1"":""5"",""Q2"":""4"",""Q3"":""2""}","high_entitlement",9,"urgency",5,5,4,2,"Male","Yes","21"
"463",694,48532,NA,"survey-multi-choice",4,406984,"0.0-4.0",53991,"group1",225872,NA,"{""Q0"":""2"",""Q1"":""5"",""Q2"":""2"",""Q3"":""1""}","high_entitlement",3,"relationship",2,5,2,1,"Male","Yes","21"
"464",695,22156,NA,"survey-multi-choice",5,429145,"0.0-5.0",53991,"group1",225872,NA,"{""Q0"":""7"",""Q1"":""1"",""Q2"":""1"",""Q3"":""1""}","high_entitlement",5,"institution",7,1,1,1,"Male","Yes","21"
"465",696,18204,NA,"survey-multi-choice",6,447354,"0.0-6.0",53991,"group1",225872,NA,"{""Q0"":""5"",""Q1"":""1"",""Q2"":""1"",""Q3"":""7""}","low_entitlement",10,"institution",5,1,1,7,"Male","Yes","21"
"466",697,20482,NA,"survey-multi-choice",7,467841,"0.0-7.0",53991,"group1",225872,NA,"{""Q0"":""2"",""Q1"":""2"",""Q2"":""1"",""Q3"":""1""}","low_entitlement",6,"institution",2,2,1,1,"Male","Yes","21"
"467",698,18171,NA,"survey-multi-choice",8,486018,"0.0-8.0",53991,"group1",225872,NA,"{""Q0"":""7"",""Q1"":""3"",""Q2"":""5"",""Q3"":""3""}","low_entitlement",4,"relationship",7,3,5,3,"Male","Yes","21"
"468",699,53042,NA,"survey-multi-choice",9,539065,"0.0-9.0",53991,"group1",225872,NA,"{""Q0"":""7"",""Q1"":""5"",""Q2"":""6"",""Q3"":""6""}","low_entitlement",2,"interaction",7,5,6,6,"Male","Yes","21"
"469",700,25103,NA,"survey-multi-choice",10,564174,"0.0-10.0",53991,"group1",225872,NA,"{""Q0"":""2"",""Q1"":""5"",""Q2"":""2"",""Q3"":""7""}","high_entitlement",1,"interaction",2,5,2,7,"Male","Yes","21"
"470",701,32106,NA,"survey-multi-choice",11,596287,"0.0-11.0",53991,"group1",225872,NA,"{""Q0"":""6"",""Q1"":""6"",""Q2"":""5"",""Q3"":""5""}","low_entitlement",8,"urgency",6,6,5,5,"Male","Yes","21"
"471",707,16442,NA,"survey-multi-choice",2,35438,"0.0-2.0",5681,"group2",779419,NA,"{""Q0"":""4"",""Q1"":""7"",""Q2"":""5"",""Q3"":""6""}","high_entitlement",4,"relationship",4,7,5,6,"Male","Yes","37"
"472",708,21292,NA,"survey-multi-choice",3,56734,"0.0-3.0",5681,"group2",779419,NA,"{""Q0"":""4"",""Q1"":""5"",""Q2"":""6"",""Q3"":""4""}","low_entitlement",9,"urgency",4,5,6,4,"Male","Yes","37"
"473",709,18753,NA,"survey-multi-choice",4,75491,"0.0-4.0",5681,"group2",779419,NA,"{""Q0"":""6"",""Q1"":""1"",""Q2"":""1"",""Q3"":""7""}","high_entitlement",10,"institution",6,1,1,7,"Male","Yes","37"
"474",710,15301,NA,"survey-multi-choice",5,90796,"0.0-5.0",5681,"group2",779419,NA,"{""Q0"":""2"",""Q1"":""3"",""Q2"":""2"",""Q3"":""4""}","low_entitlement",3,"relationship",2,3,2,4,"Male","Yes","37"
"475",711,16435,NA,"survey-multi-choice",6,107235,"0.0-6.0",5681,"group2",779419,NA,"{""Q0"":""6"",""Q1"":""5"",""Q2"":""6"",""Q3"":""7""}","high_entitlement",8,"urgency",6,5,6,7,"Male","Yes","37"
"476",712,14073,NA,"survey-multi-choice",7,121312,"0.0-7.0",5681,"group2",779419,NA,"{""Q0"":""1"",""Q1"":""1"",""Q2"":""1"",""Q3"":""7""}","low_entitlement",5,"institution",1,1,1,7,"Male","Yes","37"
"477",713,17841,NA,"survey-multi-choice",8,139157,"0.0-8.0",5681,"group2",779419,NA,"{""Q0"":""6"",""Q1"":""4"",""Q2"":""5"",""Q3"":""7""}","high_entitlement",2,"interaction",6,4,5,7,"Male","Yes","37"
"478",714,16413,NA,"survey-multi-choice",9,155574,"0.0-9.0",5681,"group2",779419,NA,"{""Q0"":""3"",""Q1"":""5"",""Q2"":""5"",""Q3"":""2""}","low_entitlement",7,"urgency",3,5,5,2,"Male","Yes","37"
"479",715,16834,NA,"survey-multi-choice",10,172412,"0.0-10.0",5681,"group2",779419,NA,"{""Q0"":""6"",""Q1"":""1"",""Q2"":""1"",""Q3"":""7""}","high_entitlement",6,"institution",6,1,1,7,"Male","Yes","37"
"480",716,22120,NA,"survey-multi-choice",11,194539,"0.0-11.0",5681,"group2",779419,NA,"{""Q0"":""4"",""Q1"":""4"",""Q2"":""5"",""Q3"":""4""}","low_entitlement",1,"interaction",4,4,5,4,"Male","Yes","37"
"481",722,36602,NA,"survey-multi-choice",2,79708,"0.0-2.0",57197,"group1",885028,NA,"{""Q0"":""1"",""Q1"":""1"",""Q2"":""1"",""Q3"":""7""}","low_entitlement",10,"institution",1,1,1,7,"Female","Yes","46"
"482",723,29353,NA,"survey-multi-choice",3,109091,"0.0-3.0",57197,"group1",885028,NA,"{""Q0"":""7"",""Q1"":""6"",""Q2"":""2"",""Q3"":""6""}","high_entitlement",9,"urgency",7,6,2,6,"Female","Yes","46"
"483",724,55225,NA,"survey-multi-choice",4,164356,"0.0-4.0",57197,"group1",885028,NA,"{""Q0"":""1"",""Q1"":""3"",""Q2"":""1"",""Q3"":""7""}","high_entitlement",3,"relationship",1,3,1,7,"Female","Yes","46"
"484",725,24622,NA,"survey-multi-choice",5,189027,"0.0-5.0",57197,"group1",885028,NA,"{""Q0"":""7"",""Q1"":""1"",""Q2"":""1"",""Q3"":""7""}","high_entitlement",5,"institution",7,1,1,7,"Female","Yes","46"
"485",726,32969,NA,"survey-multi-choice",6,222023,"0.0-6.0",57197,"group1",885028,NA,"{""Q0"":""6"",""Q1"":""4"",""Q2"":""3"",""Q3"":""7""}","high_entitlement",1,"interaction",6,4,3,7,"Female","Yes","46"
"486",727,38757,NA,"survey-multi-choice",7,260816,"0.0-7.0",57197,"group1",885028,NA,"{""Q0"":""7"",""Q1"":""6"",""Q2"":""5"",""Q3"":""6""}","high_entitlement",7,"urgency",7,6,5,6,"Female","Yes","46"
"487",728,35186,NA,"survey-multi-choice",8,296033,"0.0-8.0",57197,"group1",885028,NA,"{""Q0"":""7"",""Q1"":""5"",""Q2"":""6"",""Q3"":""1""}","low_entitlement",2,"interaction",7,5,6,1,"Female","Yes","46"
"488",729,21506,NA,"survey-multi-choice",9,317585,"0.0-9.0",57197,"group1",885028,NA,"{""Q0"":""7"",""Q1"":""4"",""Q2"":""6"",""Q3"":""1""}","low_entitlement",4,"relationship",7,4,6,1,"Female","Yes","46"
"489",730,14086,NA,"survey-multi-choice",10,331705,"0.0-10.0",57197,"group1",885028,NA,"{""Q0"":""7"",""Q1"":""5"",""Q2"":""6"",""Q3"":""1""}","low_entitlement",8,"urgency",7,5,6,1,"Female","Yes","46"
"490",731,12574,NA,"survey-multi-choice",11,344305,"0.0-11.0",57197,"group1",885028,NA,"{""Q0"":""3"",""Q1"":""1"",""Q2"":""1"",""Q3"":""7""}","low_entitlement",6,"institution",3,1,1,7,"Female","Yes","46"
"491",737,92199,NA,"survey-multi-choice",2,157887,"0.0-2.0",58559,"group2",572158,NA,"{""Q0"":""5"",""Q1"":""6"",""Q2"":""3"",""Q3"":""1""}","high_entitlement",8,"urgency",5,6,3,1,"Male","Yes","33"
"492",738,57904,NA,"survey-multi-choice",3,215795,"0.0-3.0",58559,"group2",572158,NA,"{""Q0"":""5"",""Q1"":""7"",""Q2"":""2"",""Q3"":""2""}","high_entitlement",4,"relationship",5,7,2,2,"Male","Yes","33"
"493",739,52223,NA,"survey-multi-choice",4,268023,"0.0-4.0",58559,"group2",572158,NA,"{""Q0"":""6"",""Q1"":""5"",""Q2"":""6"",""Q3"":""6""}","low_entitlement",7,"urgency",6,5,6,6,"Male","Yes","33"
"494",740,30032,NA,"survey-multi-choice",5,298060,"0.0-5.0",58559,"group2",572158,NA,"{""Q0"":""3"",""Q1"":""5"",""Q2"":""3"",""Q3"":""4""}","low_entitlement",9,"urgency",3,5,3,4,"Male","Yes","33"
"495",741,32394,NA,"survey-multi-choice",6,330458,"0.0-6.0",58559,"group2",572158,NA,"{""Q0"":""7"",""Q1"":""4"",""Q2"":""7"",""Q3"":""1""}","high_entitlement",2,"interaction",7,4,7,1,"Male","Yes","33"
"496",742,27206,NA,"survey-multi-choice",7,357670,"0.0-7.0",58559,"group2",572158,NA,"{""Q0"":""7"",""Q1"":""1"",""Q2"":""6"",""Q3"":""1""}","low_entitlement",5,"institution",7,1,6,1,"Male","Yes","33"
"497",743,41995,NA,"survey-multi-choice",8,399668,"0.0-8.0",58559,"group2",572158,NA,"{""Q0"":""7"",""Q1"":""2"",""Q2"":""4"",""Q3"":""1""}","high_entitlement",6,"institution",7,2,4,1,"Male","Yes","33"
